participant,date,expName,psychopyVersion,OS,frameRate,correctKey,prac_resp.keys,prac_resp.corr,prac_resp.rt,practiceTrials.thisRepN,practiceTrials.thisTrialN,practiceTrials.thisN,practiceTrials.thisIndex,practiceTrials.ran,condition,display,test_resp.keys,test_resp.corr,test_resp.rt,trials.thisRepN,trials.thisTrialN,trials.thisN,trials.thisIndex,trials.ran,display_loop.thisRepN,display_loop.thisTrialN,display_loop.thisN,display_loop.thisIndex,display_loop.ran
5fdfd04b9bf07d83b2e5f780,2023-04-05_21h30.38.462,supdoc_online,2022.2.5,Win32,75.14277127,,,,,,,,,,,,,,,,,,,,,,,,
5fdfd04b9bf07d83b2e5f780,2023-04-05_21h30.38.462,supdoc_online,2022.2.5,Win32,75.14277127,,,,,,,,,,,,,,,,,,,,,,,,
5fdfd04b9bf07d83b2e5f780,2023-04-05_21h30.38.462,supdoc_online,2022.2.5,Win32,75.14277127,left,up,0,1.3249,0,0,0,0,1,feature,,,,,,,,,,,,,,
5fdfd04b9bf07d83b2e5f780,2023-04-05_21h30.38.462,supdoc_online,2022.2.5,Win32,75.14277127,right,right,0,3.3164,0,1,1,1,1,spatial,,,,,,,,,,,,,,
5fdfd04b9bf07d83b2e5f780,2023-04-05_21h30.38.462,supdoc_online,2022.2.5,Win32,75.14277127,up,up,0,1.0779,0,2,2,2,1,neither,,,,,,,,,,,,,,
5fdfd04b9bf07d83b2e5f780,2023-04-05_21h30.38.462,supdoc_online,2022.2.5,Win32,75.14277127,right,left,0,0.9589,1,0,3,1,1,spatial,,,,,,,,,,,,,,
5fdfd04b9bf07d83b2e5f780,2023-04-05_21h30.38.462,supdoc_online,2022.2.5,Win32,75.14277127,up,up,0,0.8362,1,1,4,2,1,neither,,,,,,,,,,,,,,
5fdfd04b9bf07d83b2e5f780,2023-04-05_21h30.38.462,supdoc_online,2022.2.5,Win32,75.14277127,left,up,0,2.2452,1,2,5,0,1,feature,,,,,,,,,,,,,,
5fdfd04b9bf07d83b2e5f780,2023-04-05_21h30.38.462,supdoc_online,2022.2.5,Win32,75.14277127,right,right,0,2.076,2,0,6,1,1,spatial,,,,,,,,,,,,,,
5fdfd04b9bf07d83b2e5f780,2023-04-05_21h30.38.462,supdoc_online,2022.2.5,Win32,75.14277127,up,up,0,2.0518,2,1,7,2,1,neither,,,,,,,,,,,,,,
5fdfd04b9bf07d83b2e5f780,2023-04-05_21h30.38.462,supdoc_online,2022.2.5,Win32,75.14277127,left,right,0,2.3256,2,2,8,0,1,feature,,,,,,,,,,,,,,
5fdfd04b9bf07d83b2e5f780,2023-04-05_21h30.38.462,supdoc_online,2022.2.5,Win32,75.14277127,,,,,,,,,,,,,,,,,,,,,,,,
5fdfd04b9bf07d83b2e5f780,2023-04-05_21h30.38.462,supdoc_online,2022.2.5,Win32,75.14277127,,,,,,,,,,,,,,,,,,,,,,,,
5fdfd04b9bf07d83b2e5f780,2023-04-05_21h30.38.462,supdoc_online,2022.2.5,Win32,75.14277127,up,,,,,,,,,neither,m,up,1,1.2045,0,0,0,2,1,,,,,
5fdfd04b9bf07d83b2e5f780,2023-04-05_21h30.38.462,supdoc_online,2022.2.5,Win32,75.14277127,left,,,,,,,,,feature,m,left,1,0.6181,0,1,1,0,1,,,,,
5fdfd04b9bf07d83b2e5f780,2023-04-05_21h30.38.462,supdoc_online,2022.2.5,Win32,75.14277127,right,,,,,,,,,spatial,m,right,1,1.3964,0,2,2,1,1,,,,,
5fdfd04b9bf07d83b2e5f780,2023-04-05_21h30.38.462,supdoc_online,2022.2.5,Win32,75.14277127,left,,,,,,,,,feature,m,left,1,0.6019,1,0,3,0,1,,,,,
5fdfd04b9bf07d83b2e5f780,2023-04-05_21h30.38.462,supdoc_online,2022.2.5,Win32,75.14277127,right,,,,,,,,,spatial,m,right,1,1.8873,1,1,4,1,1,,,,,
5fdfd04b9bf07d83b2e5f780,2023-04-05_21h30.38.462,supdoc_online,2022.2.5,Win32,75.14277127,up,,,,,,,,,neither,m,left,0,1.192,1,2,5,2,1,,,,,
5fdfd04b9bf07d83b2e5f780,2023-04-05_21h30.38.462,supdoc_online,2022.2.5,Win32,75.14277127,right,,,,,,,,,spatial,m,right,1,1.4138,2,0,6,1,1,,,,,
5fdfd04b9bf07d83b2e5f780,2023-04-05_21h30.38.462,supdoc_online,2022.2.5,Win32,75.14277127,up,,,,,,,,,neither,m,up,1,1.2452,2,1,7,2,1,,,,,
5fdfd04b9bf07d83b2e5f780,2023-04-05_21h30.38.462,supdoc_online,2022.2.5,Win32,75.14277127,left,,,,,,,,,feature,m,left,1,0.637,2,2,8,0,1,,,,,
5fdfd04b9bf07d83b2e5f780,2023-04-05_21h30.38.462,supdoc_online,2022.2.5,Win32,75.14277127,up,,,,,,,,,neither,m,up,1,1.9514,3,0,9,2,1,,,,,
5fdfd04b9bf07d83b2e5f780,2023-04-05_21h30.38.462,supdoc_online,2022.2.5,Win32,75.14277127,right,,,,,,,,,spatial,m,right,1,2.9938,3,1,10,1,1,,,,,
5fdfd04b9bf07d83b2e5f780,2023-04-05_21h30.38.462,supdoc_online,2022.2.5,Win32,75.14277127,left,,,,,,,,,feature,m,left,1,1.9757,3,2,11,0,1,,,,,
5fdfd04b9bf07d83b2e5f780,2023-04-05_21h30.38.462,supdoc_online,2022.2.5,Win32,75.14277127,,,,,,,,,,,m,,,,,,,,,0,0,0,0,1
5fdfd04b9bf07d83b2e5f780,2023-04-05_21h30.38.462,supdoc_online,2022.2.5,Win32,75.14277127,right,,,,,,,,,spatial,p,right,1,2.4702,0,0,0,1,1,,,,,
5fdfd04b9bf07d83b2e5f780,2023-04-05_21h30.38.462,supdoc_online,2022.2.5,Win32,75.14277127,up,,,,,,,,,neither,p,up,1,1.0998,0,1,1,2,1,,,,,
5fdfd04b9bf07d83b2e5f780,2023-04-05_21h30.38.462,supdoc_online,2022.2.5,Win32,75.14277127,left,,,,,,,,,feature,p,left,1,2.3717,0,2,2,0,1,,,,,
5fdfd04b9bf07d83b2e5f780,2023-04-05_21h30.38.462,supdoc_online,2022.2.5,Win32,75.14277127,up,,,,,,,,,neither,p,right,0,0.9947,1,0,3,2,1,,,,,
5fdfd04b9bf07d83b2e5f780,2023-04-05_21h30.38.462,supdoc_online,2022.2.5,Win32,75.14277127,right,,,,,,,,,spatial,p,right,1,1.1567,1,1,4,1,1,,,,,
5fdfd04b9bf07d83b2e5f780,2023-04-05_21h30.38.462,supdoc_online,2022.2.5,Win32,75.14277127,left,,,,,,,,,feature,p,left,1,0.6734,1,2,5,0,1,,,,,
5fdfd04b9bf07d83b2e5f780,2023-04-05_21h30.38.462,supdoc_online,2022.2.5,Win32,75.14277127,left,,,,,,,,,feature,p,left,1,1.2446,2,0,6,0,1,,,,,
5fdfd04b9bf07d83b2e5f780,2023-04-05_21h30.38.462,supdoc_online,2022.2.5,Win32,75.14277127,up,,,,,,,,,neither,p,right,0,1.6491,2,1,7,2,1,,,,,
5fdfd04b9bf07d83b2e5f780,2023-04-05_21h30.38.462,supdoc_online,2022.2.5,Win32,75.14277127,right,,,,,,,,,spatial,p,right,1,0.8649,2,2,8,1,1,,,,,
5fdfd04b9bf07d83b2e5f780,2023-04-05_21h30.38.462,supdoc_online,2022.2.5,Win32,75.14277127,left,,,,,,,,,feature,p,left,1,0.807,3,0,9,0,1,,,,,
5fdfd04b9bf07d83b2e5f780,2023-04-05_21h30.38.462,supdoc_online,2022.2.5,Win32,75.14277127,right,,,,,,,,,spatial,p,right,1,2.1566,3,1,10,1,1,,,,,
5fdfd04b9bf07d83b2e5f780,2023-04-05_21h30.38.462,supdoc_online,2022.2.5,Win32,75.14277127,up,,,,,,,,,neither,p,up,1,0.9522,3,2,11,2,1,,,,,
5fdfd04b9bf07d83b2e5f780,2023-04-05_21h30.38.462,supdoc_online,2022.2.5,Win32,75.14277127,,,,,,,,,,,p,,,,,,,,,0,1,1,1,1
5fdfd04b9bf07d83b2e5f780,2023-04-05_21h30.38.462,supdoc_online,2022.2.5,Win32,75.14277127,right,,,,,,,,,spatial,p,right,1,0.8677,0,0,0,1,1,,,,,
5fdfd04b9bf07d83b2e5f780,2023-04-05_21h30.38.462,supdoc_online,2022.2.5,Win32,75.14277127,left,,,,,,,,,feature,p,left,1,1.212,0,1,1,0,1,,,,,
5fdfd04b9bf07d83b2e5f780,2023-04-05_21h30.38.462,supdoc_online,2022.2.5,Win32,75.14277127,up,,,,,,,,,neither,p,up,1,1.1912,0,2,2,2,1,,,,,
5fdfd04b9bf07d83b2e5f780,2023-04-05_21h30.38.462,supdoc_online,2022.2.5,Win32,75.14277127,right,,,,,,,,,spatial,p,right,1,0.8419,1,0,3,1,1,,,,,
5fdfd04b9bf07d83b2e5f780,2023-04-05_21h30.38.462,supdoc_online,2022.2.5,Win32,75.14277127,up,,,,,,,,,neither,p,up,1,0.983,1,1,4,2,1,,,,,
5fdfd04b9bf07d83b2e5f780,2023-04-05_21h30.38.462,supdoc_online,2022.2.5,Win32,75.14277127,left,,,,,,,,,feature,p,left,1,0.8676,1,2,5,0,1,,,,,
5fdfd04b9bf07d83b2e5f780,2023-04-05_21h30.38.462,supdoc_online,2022.2.5,Win32,75.14277127,left,,,,,,,,,feature,p,left,1,2.1043,2,0,6,0,1,,,,,
5fdfd04b9bf07d83b2e5f780,2023-04-05_21h30.38.462,supdoc_online,2022.2.5,Win32,75.14277127,right,,,,,,,,,spatial,p,right,1,1.3894,2,1,7,1,1,,,,,
5fdfd04b9bf07d83b2e5f780,2023-04-05_21h30.38.462,supdoc_online,2022.2.5,Win32,75.14277127,up,,,,,,,,,neither,p,up,1,2.1761,2,2,8,2,1,,,,,
5fdfd04b9bf07d83b2e5f780,2023-04-05_21h30.38.462,supdoc_online,2022.2.5,Win32,75.14277127,right,,,,,,,,,spatial,p,right,1,0.8185,3,0,9,1,1,,,,,
5fdfd04b9bf07d83b2e5f780,2023-04-05_21h30.38.462,supdoc_online,2022.2.5,Win32,75.14277127,up,,,,,,,,,neither,p,up,1,1.0253,3,1,10,2,1,,,,,
5fdfd04b9bf07d83b2e5f780,2023-04-05_21h30.38.462,supdoc_online,2022.2.5,Win32,75.14277127,left,,,,,,,,,feature,p,left,1,0.7398,3,2,11,0,1,,,,,
5fdfd04b9bf07d83b2e5f780,2023-04-05_21h30.38.462,supdoc_online,2022.2.5,Win32,75.14277127,,,,,,,,,,,p,,,,,,,,,1,0,2,1,1
5fdfd04b9bf07d83b2e5f780,2023-04-05_21h30.38.462,supdoc_online,2022.2.5,Win32,75.14277127,up,,,,,,,,,neither,m,up,1,1.8124,0,0,0,2,1,,,,,
5fdfd04b9bf07d83b2e5f780,2023-04-05_21h30.38.462,supdoc_online,2022.2.5,Win32,75.14277127,left,,,,,,,,,feature,m,left,1,0.5234,0,1,1,0,1,,,,,
5fdfd04b9bf07d83b2e5f780,2023-04-05_21h30.38.462,supdoc_online,2022.2.5,Win32,75.14277127,right,,,,,,,,,spatial,m,right,1,0.6332,0,2,2,1,1,,,,,
5fdfd04b9bf07d83b2e5f780,2023-04-05_21h30.38.462,supdoc_online,2022.2.5,Win32,75.14277127,right,,,,,,,,,spatial,m,right,1,0.7807,1,0,3,1,1,,,,,
5fdfd04b9bf07d83b2e5f780,2023-04-05_21h30.38.462,supdoc_online,2022.2.5,Win32,75.14277127,up,,,,,,,,,neither,m,up,1,0.7016,1,1,4,2,1,,,,,
5fdfd04b9bf07d83b2e5f780,2023-04-05_21h30.38.462,supdoc_online,2022.2.5,Win32,75.14277127,left,,,,,,,,,feature,m,left,1,0.5202,1,2,5,0,1,,,,,
5fdfd04b9bf07d83b2e5f780,2023-04-05_21h30.38.462,supdoc_online,2022.2.5,Win32,75.14277127,left,,,,,,,,,feature,m,right,0,0.7653,2,0,6,0,1,,,,,
5fdfd04b9bf07d83b2e5f780,2023-04-05_21h30.38.462,supdoc_online,2022.2.5,Win32,75.14277127,right,,,,,,,,,spatial,m,right,1,1.2187,2,1,7,1,1,,,,,
5fdfd04b9bf07d83b2e5f780,2023-04-05_21h30.38.462,supdoc_online,2022.2.5,Win32,75.14277127,up,,,,,,,,,neither,m,left,0,0.6021,2,2,8,2,1,,,,,
5fdfd04b9bf07d83b2e5f780,2023-04-05_21h30.38.462,supdoc_online,2022.2.5,Win32,75.14277127,up,,,,,,,,,neither,m,up,1,1.0742,3,0,9,2,1,,,,,
5fdfd04b9bf07d83b2e5f780,2023-04-05_21h30.38.462,supdoc_online,2022.2.5,Win32,75.14277127,right,,,,,,,,,spatial,m,right,1,1.0203,3,1,10,1,1,,,,,
5fdfd04b9bf07d83b2e5f780,2023-04-05_21h30.38.462,supdoc_online,2022.2.5,Win32,75.14277127,left,,,,,,,,,feature,m,left,1,0.7714,3,2,11,0,1,,,,,
5fdfd04b9bf07d83b2e5f780,2023-04-05_21h30.38.462,supdoc_online,2022.2.5,Win32,75.14277127,,,,,,,,,,,m,,,,,,,,,1,1,3,0,1
5fdfd04b9bf07d83b2e5f780,2023-04-05_21h30.38.462,supdoc_online,2022.2.5,Win32,75.14277127,up,,,,,,,,,neither,m,up,1,0.7313,0,0,0,2,1,,,,,
5fdfd04b9bf07d83b2e5f780,2023-04-05_21h30.38.462,supdoc_online,2022.2.5,Win32,75.14277127,left,,,,,,,,,feature,m,up,0,0.6471,0,1,1,0,1,,,,,
5fdfd04b9bf07d83b2e5f780,2023-04-05_21h30.38.462,supdoc_online,2022.2.5,Win32,75.14277127,right,,,,,,,,,spatial,m,right,1,0.9634,0,2,2,1,1,,,,,
5fdfd04b9bf07d83b2e5f780,2023-04-05_21h30.38.462,supdoc_online,2022.2.5,Win32,75.14277127,left,,,,,,,,,feature,m,up,0,1.115,1,0,3,0,1,,,,,
5fdfd04b9bf07d83b2e5f780,2023-04-05_21h30.38.462,supdoc_online,2022.2.5,Win32,75.14277127,up,,,,,,,,,neither,m,up,1,0.9925,1,1,4,2,1,,,,,
5fdfd04b9bf07d83b2e5f780,2023-04-05_21h30.38.462,supdoc_online,2022.2.5,Win32,75.14277127,right,,,,,,,,,spatial,m,right,1,0.8358,1,2,5,1,1,,,,,
5fdfd04b9bf07d83b2e5f780,2023-04-05_21h30.38.462,supdoc_online,2022.2.5,Win32,75.14277127,right,,,,,,,,,spatial,m,right,1,1.7664,2,0,6,1,1,,,,,
5fdfd04b9bf07d83b2e5f780,2023-04-05_21h30.38.462,supdoc_online,2022.2.5,Win32,75.14277127,left,,,,,,,,,feature,m,left,1,1.1256,2,1,7,0,1,,,,,
5fdfd04b9bf07d83b2e5f780,2023-04-05_21h30.38.462,supdoc_online,2022.2.5,Win32,75.14277127,up,,,,,,,,,neither,m,up,1,1.2919,2,2,8,2,1,,,,,
5fdfd04b9bf07d83b2e5f780,2023-04-05_21h30.38.462,supdoc_online,2022.2.5,Win32,75.14277127,up,,,,,,,,,neither,m,up,1,1.3315,3,0,9,2,1,,,,,
5fdfd04b9bf07d83b2e5f780,2023-04-05_21h30.38.462,supdoc_online,2022.2.5,Win32,75.14277127,left,,,,,,,,,feature,m,left,1,0.7835,3,1,10,0,1,,,,,
5fdfd04b9bf07d83b2e5f780,2023-04-05_21h30.38.462,supdoc_online,2022.2.5,Win32,75.14277127,right,,,,,,,,,spatial,m,right,1,1.3939,3,2,11,1,1,,,,,
5fdfd04b9bf07d83b2e5f780,2023-04-05_21h30.38.462,supdoc_online,2022.2.5,Win32,75.14277127,,,,,,,,,,,m,,,,,,,,,2,0,4,0,1
5fdfd04b9bf07d83b2e5f780,2023-04-05_21h30.38.462,supdoc_online,2022.2.5,Win32,75.14277127,left,,,,,,,,,feature,p,left,1,1.0827,0,0,0,0,1,,,,,
5fdfd04b9bf07d83b2e5f780,2023-04-05_21h30.38.462,supdoc_online,2022.2.5,Win32,75.14277127,up,,,,,,,,,neither,p,up,1,1.2409,0,1,1,2,1,,,,,
5fdfd04b9bf07d83b2e5f780,2023-04-05_21h30.38.462,supdoc_online,2022.2.5,Win32,75.14277127,right,,,,,,,,,spatial,p,right,1,0.9885,0,2,2,1,1,,,,,
5fdfd04b9bf07d83b2e5f780,2023-04-05_21h30.38.462,supdoc_online,2022.2.5,Win32,75.14277127,left,,,,,,,,,feature,p,left,1,0.8343,1,0,3,0,1,,,,,
5fdfd04b9bf07d83b2e5f780,2023-04-05_21h30.38.462,supdoc_online,2022.2.5,Win32,75.14277127,up,,,,,,,,,neither,p,up,1,1.908,1,1,4,2,1,,,,,
5fdfd04b9bf07d83b2e5f780,2023-04-05_21h30.38.462,supdoc_online,2022.2.5,Win32,75.14277127,right,,,,,,,,,spatial,p,left,0,0.5187,1,2,5,1,1,,,,,
5fdfd04b9bf07d83b2e5f780,2023-04-05_21h30.38.462,supdoc_online,2022.2.5,Win32,75.14277127,up,,,,,,,,,neither,p,up,1,1.5001,2,0,6,2,1,,,,,
5fdfd04b9bf07d83b2e5f780,2023-04-05_21h30.38.462,supdoc_online,2022.2.5,Win32,75.14277127,right,,,,,,,,,spatial,p,right,1,0.8004,2,1,7,1,1,,,,,
5fdfd04b9bf07d83b2e5f780,2023-04-05_21h30.38.462,supdoc_online,2022.2.5,Win32,75.14277127,left,,,,,,,,,feature,p,left,1,1.0475,2,2,8,0,1,,,,,
5fdfd04b9bf07d83b2e5f780,2023-04-05_21h30.38.462,supdoc_online,2022.2.5,Win32,75.14277127,right,,,,,,,,,spatial,p,right,1,1.0982,3,0,9,1,1,,,,,
5fdfd04b9bf07d83b2e5f780,2023-04-05_21h30.38.462,supdoc_online,2022.2.5,Win32,75.14277127,left,,,,,,,,,feature,p,right,0,0.77,3,1,10,0,1,,,,,
5fdfd04b9bf07d83b2e5f780,2023-04-05_21h30.38.462,supdoc_online,2022.2.5,Win32,75.14277127,up,,,,,,,,,neither,p,up,1,1.2263,3,2,11,2,1,,,,,
5fdfd04b9bf07d83b2e5f780,2023-04-05_21h30.38.462,supdoc_online,2022.2.5,Win32,75.14277127,,,,,,,,,,,p,,,,,,,,,2,1,5,1,1
5fdfd04b9bf07d83b2e5f780,2023-04-05_21h30.38.462,supdoc_online,2022.2.5,Win32,75.14277127,up,,,,,,,,,neither,p,up,1,1.038,0,0,0,2,1,,,,,
5fdfd04b9bf07d83b2e5f780,2023-04-05_21h30.38.462,supdoc_online,2022.2.5,Win32,75.14277127,left,,,,,,,,,feature,p,left,1,0.8974,0,1,1,0,1,,,,,
5fdfd04b9bf07d83b2e5f780,2023-04-05_21h30.38.462,supdoc_online,2022.2.5,Win32,75.14277127,right,,,,,,,,,spatial,p,right,1,0.8012,0,2,2,1,1,,,,,
5fdfd04b9bf07d83b2e5f780,2023-04-05_21h30.38.462,supdoc_online,2022.2.5,Win32,75.14277127,up,,,,,,,,,neither,p,up,1,0.6453,1,0,3,2,1,,,,,
5fdfd04b9bf07d83b2e5f780,2023-04-05_21h30.38.462,supdoc_online,2022.2.5,Win32,75.14277127,left,,,,,,,,,feature,p,left,1,0.5409,1,1,4,0,1,,,,,
5fdfd04b9bf07d83b2e5f780,2023-04-05_21h30.38.462,supdoc_online,2022.2.5,Win32,75.14277127,right,,,,,,,,,spatial,p,right,1,0.7891,1,2,5,1,1,,,,,
5fdfd04b9bf07d83b2e5f780,2023-04-05_21h30.38.462,supdoc_online,2022.2.5,Win32,75.14277127,up,,,,,,,,,neither,p,up,1,0.5822,2,0,6,2,1,,,,,
5fdfd04b9bf07d83b2e5f780,2023-04-05_21h30.38.462,supdoc_online,2022.2.5,Win32,75.14277127,right,,,,,,,,,spatial,p,up,0,0.5378,2,1,7,1,1,,,,,
5fdfd04b9bf07d83b2e5f780,2023-04-05_21h30.38.462,supdoc_online,2022.2.5,Win32,75.14277127,left,,,,,,,,,feature,p,left,1,1.1829,2,2,8,0,1,,,,,
5fdfd04b9bf07d83b2e5f780,2023-04-05_21h30.38.462,supdoc_online,2022.2.5,Win32,75.14277127,left,,,,,,,,,feature,p,left,1,1.5544,3,0,9,0,1,,,,,
5fdfd04b9bf07d83b2e5f780,2023-04-05_21h30.38.462,supdoc_online,2022.2.5,Win32,75.14277127,right,,,,,,,,,spatial,p,right,1,0.8158,3,1,10,1,1,,,,,
5fdfd04b9bf07d83b2e5f780,2023-04-05_21h30.38.462,supdoc_online,2022.2.5,Win32,75.14277127,up,,,,,,,,,neither,p,up,1,0.9365,3,2,11,2,1,,,,,
5fdfd04b9bf07d83b2e5f780,2023-04-05_21h30.38.462,supdoc_online,2022.2.5,Win32,75.14277127,,,,,,,,,,,p,,,,,,,,,3,0,6,1,1
5fdfd04b9bf07d83b2e5f780,2023-04-05_21h30.38.462,supdoc_online,2022.2.5,Win32,75.14277127,left,,,,,,,,,feature,m,left,1,0.8311,0,0,0,0,1,,,,,
5fdfd04b9bf07d83b2e5f780,2023-04-05_21h30.38.462,supdoc_online,2022.2.5,Win32,75.14277127,right,,,,,,,,,spatial,m,right,1,0.7451,0,1,1,1,1,,,,,
5fdfd04b9bf07d83b2e5f780,2023-04-05_21h30.38.462,supdoc_online,2022.2.5,Win32,75.14277127,up,,,,,,,,,neither,m,up,1,0.5255,0,2,2,2,1,,,,,
5fdfd04b9bf07d83b2e5f780,2023-04-05_21h30.38.462,supdoc_online,2022.2.5,Win32,75.14277127,left,,,,,,,,,feature,m,up,0,1.5924,1,0,3,0,1,,,,,
5fdfd04b9bf07d83b2e5f780,2023-04-05_21h30.38.462,supdoc_online,2022.2.5,Win32,75.14277127,up,,,,,,,,,neither,m,up,1,1.6991,1,1,4,2,1,,,,,
5fdfd04b9bf07d83b2e5f780,2023-04-05_21h30.38.462,supdoc_online,2022.2.5,Win32,75.14277127,right,,,,,,,,,spatial,m,right,1,0.8063,1,2,5,1,1,,,,,
5fdfd04b9bf07d83b2e5f780,2023-04-05_21h30.38.462,supdoc_online,2022.2.5,Win32,75.14277127,left,,,,,,,,,feature,m,up,0,0.9613,2,0,6,0,1,,,,,
5fdfd04b9bf07d83b2e5f780,2023-04-05_21h30.38.462,supdoc_online,2022.2.5,Win32,75.14277127,right,,,,,,,,,spatial,m,right,1,1.7692,2,1,7,1,1,,,,,
5fdfd04b9bf07d83b2e5f780,2023-04-05_21h30.38.462,supdoc_online,2022.2.5,Win32,75.14277127,up,,,,,,,,,neither,m,up,1,0.959,2,2,8,2,1,,,,,
5fdfd04b9bf07d83b2e5f780,2023-04-05_21h30.38.462,supdoc_online,2022.2.5,Win32,75.14277127,left,,,,,,,,,feature,m,left,1,0.9011,3,0,9,0,1,,,,,
5fdfd04b9bf07d83b2e5f780,2023-04-05_21h30.38.462,supdoc_online,2022.2.5,Win32,75.14277127,up,,,,,,,,,neither,m,up,1,1.0439,3,1,10,2,1,,,,,
5fdfd04b9bf07d83b2e5f780,2023-04-05_21h30.38.462,supdoc_online,2022.2.5,Win32,75.14277127,right,,,,,,,,,spatial,m,right,1,0.6997,3,2,11,1,1,,,,,
5fdfd04b9bf07d83b2e5f780,2023-04-05_21h30.38.462,supdoc_online,2022.2.5,Win32,75.14277127,,,,,,,,,,,m,,,,,,,,,3,1,7,0,1
5fdfd04b9bf07d83b2e5f780,2023-04-05_21h30.38.462,supdoc_online,2022.2.5,Win32,75.14277127,left,,,,,,,,,feature,p,left,1,0.8767,0,0,0,0,1,,,,,
5fdfd04b9bf07d83b2e5f780,2023-04-05_21h30.38.462,supdoc_online,2022.2.5,Win32,75.14277127,up,,,,,,,,,neither,p,right,0,0.7462,0,1,1,2,1,,,,,
5fdfd04b9bf07d83b2e5f780,2023-04-05_21h30.38.462,supdoc_online,2022.2.5,Win32,75.14277127,right,,,,,,,,,spatial,p,right,1,0.9144,0,2,2,1,1,,,,,
5fdfd04b9bf07d83b2e5f780,2023-04-05_21h30.38.462,supdoc_online,2022.2.5,Win32,75.14277127,up,,,,,,,,,neither,p,up,1,0.729,1,0,3,2,1,,,,,
5fdfd04b9bf07d83b2e5f780,2023-04-05_21h30.38.462,supdoc_online,2022.2.5,Win32,75.14277127,left,,,,,,,,,feature,p,left,1,0.9489,1,1,4,0,1,,,,,
5fdfd04b9bf07d83b2e5f780,2023-04-05_21h30.38.462,supdoc_online,2022.2.5,Win32,75.14277127,right,,,,,,,,,spatial,p,right,1,0.9113,1,2,5,1,1,,,,,
5fdfd04b9bf07d83b2e5f780,2023-04-05_21h30.38.462,supdoc_online,2022.2.5,Win32,75.14277127,right,,,,,,,,,spatial,p,right,1,0.6325,2,0,6,1,1,,,,,
5fdfd04b9bf07d83b2e5f780,2023-04-05_21h30.38.462,supdoc_online,2022.2.5,Win32,75.14277127,left,,,,,,,,,feature,p,left,1,0.7892,2,1,7,0,1,,,,,
5fdfd04b9bf07d83b2e5f780,2023-04-05_21h30.38.462,supdoc_online,2022.2.5,Win32,75.14277127,up,,,,,,,,,neither,p,up,1,0.8496,2,2,8,2,1,,,,,
5fdfd04b9bf07d83b2e5f780,2023-04-05_21h30.38.462,supdoc_online,2022.2.5,Win32,75.14277127,left,,,,,,,,,feature,p,left,1,0.8587,3,0,9,0,1,,,,,
5fdfd04b9bf07d83b2e5f780,2023-04-05_21h30.38.462,supdoc_online,2022.2.5,Win32,75.14277127,right,,,,,,,,,spatial,p,right,1,0.7072,3,1,10,1,1,,,,,
5fdfd04b9bf07d83b2e5f780,2023-04-05_21h30.38.462,supdoc_online,2022.2.5,Win32,75.14277127,up,,,,,,,,,neither,p,up,1,0.6713,3,2,11,2,1,,,,,
5fdfd04b9bf07d83b2e5f780,2023-04-05_21h30.38.462,supdoc_online,2022.2.5,Win32,75.14277127,,,,,,,,,,,p,,,,,,,,,4,0,8,1,1
5fdfd04b9bf07d83b2e5f780,2023-04-05_21h30.38.462,supdoc_online,2022.2.5,Win32,75.14277127,right,,,,,,,,,spatial,m,right,1,0.7786,0,0,0,1,1,,,,,
5fdfd04b9bf07d83b2e5f780,2023-04-05_21h30.38.462,supdoc_online,2022.2.5,Win32,75.14277127,up,,,,,,,,,neither,m,up,1,1.3788,0,1,1,2,1,,,,,
5fdfd04b9bf07d83b2e5f780,2023-04-05_21h30.38.462,supdoc_online,2022.2.5,Win32,75.14277127,left,,,,,,,,,feature,m,left,1,0.4575,0,2,2,0,1,,,,,
5fdfd04b9bf07d83b2e5f780,2023-04-05_21h30.38.462,supdoc_online,2022.2.5,Win32,75.14277127,left,,,,,,,,,feature,m,left,1,1.0835,1,0,3,0,1,,,,,
5fdfd04b9bf07d83b2e5f780,2023-04-05_21h30.38.462,supdoc_online,2022.2.5,Win32,75.14277127,right,,,,,,,,,spatial,m,right,1,0.7506,1,1,4,1,1,,,,,
5fdfd04b9bf07d83b2e5f780,2023-04-05_21h30.38.462,supdoc_online,2022.2.5,Win32,75.14277127,up,,,,,,,,,neither,m,up,1,0.393,1,2,5,2,1,,,,,
5fdfd04b9bf07d83b2e5f780,2023-04-05_21h30.38.462,supdoc_online,2022.2.5,Win32,75.14277127,left,,,,,,,,,feature,m,left,1,1.1078,2,0,6,0,1,,,,,
5fdfd04b9bf07d83b2e5f780,2023-04-05_21h30.38.462,supdoc_online,2022.2.5,Win32,75.14277127,up,,,,,,,,,neither,m,up,1,1.2059,2,1,7,2,1,,,,,
5fdfd04b9bf07d83b2e5f780,2023-04-05_21h30.38.462,supdoc_online,2022.2.5,Win32,75.14277127,right,,,,,,,,,spatial,m,right,1,0.5167,2,2,8,1,1,,,,,
5fdfd04b9bf07d83b2e5f780,2023-04-05_21h30.38.462,supdoc_online,2022.2.5,Win32,75.14277127,left,,,,,,,,,feature,m,left,1,1.3362,3,0,9,0,1,,,,,
5fdfd04b9bf07d83b2e5f780,2023-04-05_21h30.38.462,supdoc_online,2022.2.5,Win32,75.14277127,right,,,,,,,,,spatial,m,up,0,0.9442,3,1,10,1,1,,,,,
5fdfd04b9bf07d83b2e5f780,2023-04-05_21h30.38.462,supdoc_online,2022.2.5,Win32,75.14277127,up,,,,,,,,,neither,m,up,1,1.1151,3,2,11,2,1,,,,,
5fdfd04b9bf07d83b2e5f780,2023-04-05_21h30.38.462,supdoc_online,2022.2.5,Win32,75.14277127,,,,,,,,,,,m,,,,,,,,,4,1,9,0,1
5fdfd04b9bf07d83b2e5f780,2023-04-05_21h30.38.462,supdoc_online,2022.2.5,Win32,75.14277127,up,,,,,,,,,neither,p,up,1,0.7331,0,0,0,2,1,,,,,
5fdfd04b9bf07d83b2e5f780,2023-04-05_21h30.38.462,supdoc_online,2022.2.5,Win32,75.14277127,left,,,,,,,,,feature,p,left,1,0.6612,0,1,1,0,1,,,,,
5fdfd04b9bf07d83b2e5f780,2023-04-05_21h30.38.462,supdoc_online,2022.2.5,Win32,75.14277127,right,,,,,,,,,spatial,p,right,1,1.2841,0,2,2,1,1,,,,,
5fdfd04b9bf07d83b2e5f780,2023-04-05_21h30.38.462,supdoc_online,2022.2.5,Win32,75.14277127,up,,,,,,,,,neither,p,up,1,0.8649,1,0,3,2,1,,,,,
5fdfd04b9bf07d83b2e5f780,2023-04-05_21h30.38.462,supdoc_online,2022.2.5,Win32,75.14277127,right,,,,,,,,,spatial,p,right,1,0.6199,1,1,4,1,1,,,,,
5fdfd04b9bf07d83b2e5f780,2023-04-05_21h30.38.462,supdoc_online,2022.2.5,Win32,75.14277127,left,,,,,,,,,feature,p,left,1,0.6225,1,2,5,0,1,,,,,
5fdfd04b9bf07d83b2e5f780,2023-04-05_21h30.38.462,supdoc_online,2022.2.5,Win32,75.14277127,left,,,,,,,,,feature,p,left,1,0.9234,2,0,6,0,1,,,,,
5fdfd04b9bf07d83b2e5f780,2023-04-05_21h30.38.462,supdoc_online,2022.2.5,Win32,75.14277127,right,,,,,,,,,spatial,p,right,1,1.0174,2,1,7,1,1,,,,,
5fdfd04b9bf07d83b2e5f780,2023-04-05_21h30.38.462,supdoc_online,2022.2.5,Win32,75.14277127,up,,,,,,,,,neither,p,left,0,0.8114,2,2,8,2,1,,,,,
5fdfd04b9bf07d83b2e5f780,2023-04-05_21h30.38.462,supdoc_online,2022.2.5,Win32,75.14277127,right,,,,,,,,,spatial,p,right,1,1.0131,3,0,9,1,1,,,,,
5fdfd04b9bf07d83b2e5f780,2023-04-05_21h30.38.462,supdoc_online,2022.2.5,Win32,75.14277127,up,,,,,,,,,neither,p,up,1,2.7823,3,1,10,2,1,,,,,
5fdfd04b9bf07d83b2e5f780,2023-04-05_21h30.38.462,supdoc_online,2022.2.5,Win32,75.14277127,left,,,,,,,,,feature,p,up,0,2.9453,3,2,11,0,1,,,,,
5fdfd04b9bf07d83b2e5f780,2023-04-05_21h30.38.462,supdoc_online,2022.2.5,Win32,75.14277127,,,,,,,,,,,p,,,,,,,,,5,0,10,1,1
5fdfd04b9bf07d83b2e5f780,2023-04-05_21h30.38.462,supdoc_online,2022.2.5,Win32,75.14277127,up,,,,,,,,,neither,m,left,0,0.7262,0,0,0,2,1,,,,,
5fdfd04b9bf07d83b2e5f780,2023-04-05_21h30.38.462,supdoc_online,2022.2.5,Win32,75.14277127,right,,,,,,,,,spatial,m,right,1,2.2138,0,1,1,1,1,,,,,
5fdfd04b9bf07d83b2e5f780,2023-04-05_21h30.38.462,supdoc_online,2022.2.5,Win32,75.14277127,left,,,,,,,,,feature,m,left,1,1.1036,0,2,2,0,1,,,,,
5fdfd04b9bf07d83b2e5f780,2023-04-05_21h30.38.462,supdoc_online,2022.2.5,Win32,75.14277127,right,,,,,,,,,spatial,m,right,1,0.8119,1,0,3,1,1,,,,,
5fdfd04b9bf07d83b2e5f780,2023-04-05_21h30.38.462,supdoc_online,2022.2.5,Win32,75.14277127,left,,,,,,,,,feature,m,left,1,0.9029,1,1,4,0,1,,,,,
5fdfd04b9bf07d83b2e5f780,2023-04-05_21h30.38.462,supdoc_online,2022.2.5,Win32,75.14277127,up,,,,,,,,,neither,m,up,1,0.5333,1,2,5,2,1,,,,,
5fdfd04b9bf07d83b2e5f780,2023-04-05_21h30.38.462,supdoc_online,2022.2.5,Win32,75.14277127,up,,,,,,,,,neither,m,up,1,0.8772,2,0,6,2,1,,,,,
5fdfd04b9bf07d83b2e5f780,2023-04-05_21h30.38.462,supdoc_online,2022.2.5,Win32,75.14277127,right,,,,,,,,,spatial,m,right,1,3.2302,2,1,7,1,1,,,,,
5fdfd04b9bf07d83b2e5f780,2023-04-05_21h30.38.462,supdoc_online,2022.2.5,Win32,75.14277127,left,,,,,,,,,feature,m,left,1,0.8654,2,2,8,0,1,,,,,
5fdfd04b9bf07d83b2e5f780,2023-04-05_21h30.38.462,supdoc_online,2022.2.5,Win32,75.14277127,right,,,,,,,,,spatial,m,right,1,1.0702,3,0,9,1,1,,,,,
5fdfd04b9bf07d83b2e5f780,2023-04-05_21h30.38.462,supdoc_online,2022.2.5,Win32,75.14277127,left,,,,,,,,,feature,m,left,1,1.0608,3,1,10,0,1,,,,,
5fdfd04b9bf07d83b2e5f780,2023-04-05_21h30.38.462,supdoc_online,2022.2.5,Win32,75.14277127,up,,,,,,,,,neither,m,up,1,0.6203,3,2,11,2,1,,,,,
5fdfd04b9bf07d83b2e5f780,2023-04-05_21h30.38.462,supdoc_online,2022.2.5,Win32,75.14277127,,,,,,,,,,,m,,,,,,,,,5,1,11,0,1
