participant,date,expName,psychopyVersion,OS,frameRate,correctKey,prac_resp.keys,prac_resp.corr,prac_resp.rt,practiceTrials.thisRepN,practiceTrials.thisTrialN,practiceTrials.thisN,practiceTrials.thisIndex,practiceTrials.ran,condition,display,test_resp.keys,test_resp.corr,test_resp.rt,trials.thisRepN,trials.thisTrialN,trials.thisN,trials.thisIndex,trials.ran,key_resp.keys,display_loop.thisRepN,display_loop.thisTrialN,display_loop.thisN,display_loop.thisIndex,display_loop.ran,key_resp.rt
FO,2023-05-04_15h39.46.756,supdoc_online,2022.2.5,MacIntel,62.5,,,,,,,,,,,,,,,,,,,,,,,,,,
FO,2023-05-04_15h39.46.756,supdoc_online,2022.2.5,MacIntel,62.5,,,,,,,,,,,,,,,,,,,,,,,,,,
FO,2023-05-04_15h39.46.756,supdoc_online,2022.2.5,MacIntel,62.5,up,right,0,5.195,0,0,0,2,1,neither,,,,,,,,,,,,,,,,
FO,2023-05-04_15h39.46.756,supdoc_online,2022.2.5,MacIntel,62.5,right,left,0,2.701,0,1,1,1,1,spatial,,,,,,,,,,,,,,,,
FO,2023-05-04_15h39.46.756,supdoc_online,2022.2.5,MacIntel,62.5,left,left,0,2.106,0,2,2,0,1,feature,,,,,,,,,,,,,,,,
FO,2023-05-04_15h39.46.756,supdoc_online,2022.2.5,MacIntel,62.5,left,left,0,5.101,1,0,3,0,1,feature,,,,,,,,,,,,,,,,
FO,2023-05-04_15h39.46.756,supdoc_online,2022.2.5,MacIntel,62.5,up,up,0,4.146,1,1,4,2,1,neither,,,,,,,,,,,,,,,,
FO,2023-05-04_15h39.46.756,supdoc_online,2022.2.5,MacIntel,62.5,right,left,0,1.411,1,2,5,1,1,spatial,,,,,,,,,,,,,,,,
FO,2023-05-04_15h39.46.756,supdoc_online,2022.2.5,MacIntel,62.5,right,right,0,1.271,2,0,6,1,1,spatial,,,,,,,,,,,,,,,,
FO,2023-05-04_15h39.46.756,supdoc_online,2022.2.5,MacIntel,62.5,left,up,0,2.396,2,1,7,0,1,feature,,,,,,,,,,,,,,,,
FO,2023-05-04_15h39.46.756,supdoc_online,2022.2.5,MacIntel,62.5,up,up,0,3.296,2,2,8,2,1,neither,,,,,,,,,,,,,,,,
FO,2023-05-04_15h39.46.756,supdoc_online,2022.2.5,MacIntel,62.5,,,,,,,,,,,,,,,,,,,,,,,,,,
FO,2023-05-04_15h39.46.756,supdoc_online,2022.2.5,MacIntel,62.5,,,,,,,,,,,,,,,,,,,,,,,,,,
FO,2023-05-04_15h39.46.756,supdoc_online,2022.2.5,MacIntel,62.5,left,,,,,,,,,feature,p,right,0,2.336,0,0,0,0,1,,,,,,,
FO,2023-05-04_15h39.46.756,supdoc_online,2022.2.5,MacIntel,62.5,up,,,,,,,,,neither,p,left,0,1.629,0,1,1,2,1,,,,,,,
FO,2023-05-04_15h39.46.756,supdoc_online,2022.2.5,MacIntel,62.5,right,,,,,,,,,spatial,p,right,1,1.867,0,2,2,1,1,,,,,,,
FO,2023-05-04_15h39.46.756,supdoc_online,2022.2.5,MacIntel,62.5,up,,,,,,,,,neither,p,up,1,1.568,1,0,3,2,1,,,,,,,
FO,2023-05-04_15h39.46.756,supdoc_online,2022.2.5,MacIntel,62.5,left,,,,,,,,,feature,p,up,0,2.296,1,1,4,0,1,,,,,,,
FO,2023-05-04_15h39.46.756,supdoc_online,2022.2.5,MacIntel,62.5,right,,,,,,,,,spatial,p,right,1,1.946,1,2,5,1,1,,,,,,,
FO,2023-05-04_15h39.46.756,supdoc_online,2022.2.5,MacIntel,62.5,left,,,,,,,,,feature,p,left,1,1.484,2,0,6,0,1,,,,,,,
FO,2023-05-04_15h39.46.756,supdoc_online,2022.2.5,MacIntel,62.5,right,,,,,,,,,spatial,p,up,0,2.446,2,1,7,1,1,,,,,,,
FO,2023-05-04_15h39.46.756,supdoc_online,2022.2.5,MacIntel,62.5,up,,,,,,,,,neither,p,left,0,2.246,2,2,8,2,1,,,,,,,
FO,2023-05-04_15h39.46.756,supdoc_online,2022.2.5,MacIntel,62.5,right,,,,,,,,,spatial,p,right,1,1.329,3,0,9,1,1,,,,,,,
FO,2023-05-04_15h39.46.756,supdoc_online,2022.2.5,MacIntel,62.5,up,,,,,,,,,neither,p,up,1,1.18,3,1,10,2,1,,,,,,,
FO,2023-05-04_15h39.46.756,supdoc_online,2022.2.5,MacIntel,62.5,left,,,,,,,,,feature,p,up,0,1.949,3,2,11,0,1,,,,,,,
FO,2023-05-04_15h39.46.756,supdoc_online,2022.2.5,MacIntel,62.5,,,,,,,,,,,p,,,,,,,,,,0,0,0,1,1,
FO,2023-05-04_15h39.46.756,supdoc_online,2022.2.5,MacIntel,62.5,right,,,,,,,,,spatial,m,right,1,1.965,0,0,0,1,1,,,,,,,
FO,2023-05-04_15h39.46.756,supdoc_online,2022.2.5,MacIntel,62.5,left,,,,,,,,,feature,m,up,0,1.466,0,1,1,0,1,,,,,,,
FO,2023-05-04_15h39.46.756,supdoc_online,2022.2.5,MacIntel,62.5,up,,,,,,,,,neither,m,right,0,1.78,0,2,2,2,1,,,,,,,
FO,2023-05-04_15h39.46.756,supdoc_online,2022.2.5,MacIntel,62.5,right,,,,,,,,,spatial,m,right,1,1.716,1,0,3,1,1,,,,,,,
FO,2023-05-04_15h39.46.756,supdoc_online,2022.2.5,MacIntel,62.5,left,,,,,,,,,feature,m,left,1,1.168,1,1,4,0,1,,,,,,,
FO,2023-05-04_15h39.46.756,supdoc_online,2022.2.5,MacIntel,62.5,up,,,,,,,,,neither,m,up,1,1.133,1,2,5,2,1,,,,,,,
FO,2023-05-04_15h39.46.756,supdoc_online,2022.2.5,MacIntel,62.5,left,,,,,,,,,feature,m,up,0,2.069,2,0,6,0,1,,,,,,,
FO,2023-05-04_15h39.46.756,supdoc_online,2022.2.5,MacIntel,62.5,right,,,,,,,,,spatial,m,left,0,1.88,2,1,7,1,1,,,,,,,
FO,2023-05-04_15h39.46.756,supdoc_online,2022.2.5,MacIntel,62.5,up,,,,,,,,,neither,m,right,0,1.581,2,2,8,2,1,,,,,,,
FO,2023-05-04_15h39.46.756,supdoc_online,2022.2.5,MacIntel,62.5,right,,,,,,,,,spatial,m,right,1,1.452,3,0,9,1,1,,,,,,,
FO,2023-05-04_15h39.46.756,supdoc_online,2022.2.5,MacIntel,62.5,up,,,,,,,,,neither,m,right,0,1.165,3,1,10,2,1,,,,,,,
FO,2023-05-04_15h39.46.756,supdoc_online,2022.2.5,MacIntel,62.5,left,,,,,,,,,feature,m,up,0,1.328,3,2,11,0,1,,,,,,,
FO,2023-05-04_15h39.46.756,supdoc_online,2022.2.5,MacIntel,62.5,,,,,,,,,,,m,,,,,,,,,space,0,1,1,0,1,15.357
FO,2023-05-04_15h39.46.756,supdoc_online,2022.2.5,MacIntel,62.5,up,,,,,,,,,neither,p,up,1,1.463,0,0,0,2,1,,,,,,,
FO,2023-05-04_15h39.46.756,supdoc_online,2022.2.5,MacIntel,62.5,right,,,,,,,,,spatial,p,right,1,1.219,0,1,1,1,1,,,,,,,
FO,2023-05-04_15h39.46.756,supdoc_online,2022.2.5,MacIntel,62.5,left,,,,,,,,,feature,p,left,1,1.364,0,2,2,0,1,,,,,,,
FO,2023-05-04_15h39.46.756,supdoc_online,2022.2.5,MacIntel,62.5,right,,,,,,,,,spatial,p,right,1,1.529,1,0,3,1,1,,,,,,,
FO,2023-05-04_15h39.46.756,supdoc_online,2022.2.5,MacIntel,62.5,left,,,,,,,,,feature,p,left,1,1.681,1,1,4,0,1,,,,,,,
FO,2023-05-04_15h39.46.756,supdoc_online,2022.2.5,MacIntel,62.5,up,,,,,,,,,neither,p,right,0,2.082,1,2,5,2,1,,,,,,,
FO,2023-05-04_15h39.46.756,supdoc_online,2022.2.5,MacIntel,62.5,left,,,,,,,,,feature,p,left,1,1.895,2,0,6,0,1,,,,,,,
FO,2023-05-04_15h39.46.756,supdoc_online,2022.2.5,MacIntel,62.5,right,,,,,,,,,spatial,p,right,1,2.429,2,1,7,1,1,,,,,,,
FO,2023-05-04_15h39.46.756,supdoc_online,2022.2.5,MacIntel,62.5,up,,,,,,,,,neither,p,up,1,1.45,2,2,8,2,1,,,,,,,
FO,2023-05-04_15h39.46.756,supdoc_online,2022.2.5,MacIntel,62.5,left,,,,,,,,,feature,p,left,1,1.781,3,0,9,0,1,,,,,,,
FO,2023-05-04_15h39.46.756,supdoc_online,2022.2.5,MacIntel,62.5,up,,,,,,,,,neither,p,up,1,2.021,3,1,10,2,1,,,,,,,
FO,2023-05-04_15h39.46.756,supdoc_online,2022.2.5,MacIntel,62.5,right,,,,,,,,,spatial,p,right,1,1.146,3,2,11,1,1,,,,,,,
FO,2023-05-04_15h39.46.756,supdoc_online,2022.2.5,MacIntel,62.5,,,,,,,,,,,p,,,,,,,,,,1,0,2,1,1,
FO,2023-05-04_15h39.46.756,supdoc_online,2022.2.5,MacIntel,62.5,right,,,,,,,,,spatial,m,right,1,1.923,0,0,0,1,1,,,,,,,
FO,2023-05-04_15h39.46.756,supdoc_online,2022.2.5,MacIntel,62.5,up,,,,,,,,,neither,m,right,0,0.765,0,1,1,2,1,,,,,,,
FO,2023-05-04_15h39.46.756,supdoc_online,2022.2.5,MacIntel,62.5,left,,,,,,,,,feature,m,left,1,1.58,0,2,2,0,1,,,,,,,
FO,2023-05-04_15h39.46.756,supdoc_online,2022.2.5,MacIntel,62.5,right,,,,,,,,,spatial,m,right,1,1.714,1,0,3,1,1,,,,,,,
FO,2023-05-04_15h39.46.756,supdoc_online,2022.2.5,MacIntel,62.5,left,,,,,,,,,feature,m,up,0,1.399,1,1,4,0,1,,,,,,,
FO,2023-05-04_15h39.46.756,supdoc_online,2022.2.5,MacIntel,62.5,up,,,,,,,,,neither,m,left,0,1.7,1,2,5,2,1,,,,,,,
FO,2023-05-04_15h39.46.756,supdoc_online,2022.2.5,MacIntel,62.5,up,,,,,,,,,neither,m,right,0,1.106,2,0,6,2,1,,,,,,,
FO,2023-05-04_15h39.46.756,supdoc_online,2022.2.5,MacIntel,62.5,left,,,,,,,,,feature,m,left,1,1.062,2,1,7,0,1,,,,,,,
FO,2023-05-04_15h39.46.756,supdoc_online,2022.2.5,MacIntel,62.5,right,,,,,,,,,spatial,m,left,0,1.185,2,2,8,1,1,,,,,,,
FO,2023-05-04_15h39.46.756,supdoc_online,2022.2.5,MacIntel,62.5,up,,,,,,,,,neither,m,up,1,1.365,3,0,9,2,1,,,,,,,
FO,2023-05-04_15h39.46.756,supdoc_online,2022.2.5,MacIntel,62.5,right,,,,,,,,,spatial,m,right,1,1.883,3,1,10,1,1,,,,,,,
FO,2023-05-04_15h39.46.756,supdoc_online,2022.2.5,MacIntel,62.5,left,,,,,,,,,feature,m,up,0,1.202,3,2,11,0,1,,,,,,,
FO,2023-05-04_15h39.46.756,supdoc_online,2022.2.5,MacIntel,62.5,,,,,,,,,,,m,,,,,,,,,space,1,1,3,0,1,16.177
FO,2023-05-04_15h39.46.756,supdoc_online,2022.2.5,MacIntel,62.5,right,,,,,,,,,spatial,m,left,0,2.098,0,0,0,1,1,,,,,,,
FO,2023-05-04_15h39.46.756,supdoc_online,2022.2.5,MacIntel,62.5,up,,,,,,,,,neither,m,up,1,1.497,0,1,1,2,1,,,,,,,
FO,2023-05-04_15h39.46.756,supdoc_online,2022.2.5,MacIntel,62.5,left,,,,,,,,,feature,m,left,1,1.584,0,2,2,0,1,,,,,,,
FO,2023-05-04_15h39.46.756,supdoc_online,2022.2.5,MacIntel,62.5,up,,,,,,,,,neither,m,up,1,1.813,1,0,3,2,1,,,,,,,
FO,2023-05-04_15h39.46.756,supdoc_online,2022.2.5,MacIntel,62.5,left,,,,,,,,,feature,m,up,0,1.362,1,1,4,0,1,,,,,,,
FO,2023-05-04_15h39.46.756,supdoc_online,2022.2.5,MacIntel,62.5,right,,,,,,,,,spatial,m,right,1,1.245,1,2,5,1,1,,,,,,,
FO,2023-05-04_15h39.46.756,supdoc_online,2022.2.5,MacIntel,62.5,right,,,,,,,,,spatial,m,up,0,1.369,2,0,6,1,1,,,,,,,
FO,2023-05-04_15h39.46.756,supdoc_online,2022.2.5,MacIntel,62.5,left,,,,,,,,,feature,m,up,0,1.285,2,1,7,0,1,,,,,,,
FO,2023-05-04_15h39.46.756,supdoc_online,2022.2.5,MacIntel,62.5,up,,,,,,,,,neither,m,right,0,1.963,2,2,8,2,1,,,,,,,
FO,2023-05-04_15h39.46.756,supdoc_online,2022.2.5,MacIntel,62.5,up,,,,,,,,,neither,m,up,1,1.748,3,0,9,2,1,,,,,,,
FO,2023-05-04_15h39.46.756,supdoc_online,2022.2.5,MacIntel,62.5,left,,,,,,,,,feature,m,up,0,1.152,3,1,10,0,1,,,,,,,
FO,2023-05-04_15h39.46.756,supdoc_online,2022.2.5,MacIntel,62.5,right,,,,,,,,,spatial,m,right,1,1.73,3,2,11,1,1,,,,,,,
FO,2023-05-04_15h39.46.756,supdoc_online,2022.2.5,MacIntel,62.5,,,,,,,,,,,m,,,,,,,,,,2,0,4,0,1,
FO,2023-05-04_15h39.46.756,supdoc_online,2022.2.5,MacIntel,62.5,up,,,,,,,,,neither,p,right,0,2.798,0,0,0,2,1,,,,,,,
FO,2023-05-04_15h39.46.756,supdoc_online,2022.2.5,MacIntel,62.5,right,,,,,,,,,spatial,p,right,1,1.199,0,1,1,1,1,,,,,,,
FO,2023-05-04_15h39.46.756,supdoc_online,2022.2.5,MacIntel,62.5,left,,,,,,,,,feature,p,right,0,1.547,0,2,2,0,1,,,,,,,
FO,2023-05-04_15h39.46.756,supdoc_online,2022.2.5,MacIntel,62.5,right,,,,,,,,,spatial,p,right,1,0.898,1,0,3,1,1,,,,,,,
FO,2023-05-04_15h39.46.756,supdoc_online,2022.2.5,MacIntel,62.5,up,,,,,,,,,neither,p,up,1,1.53,1,1,4,2,1,,,,,,,
FO,2023-05-04_15h39.46.756,supdoc_online,2022.2.5,MacIntel,62.5,left,,,,,,,,,feature,p,right,0,1.596,1,2,5,0,1,,,,,,,
FO,2023-05-04_15h39.46.756,supdoc_online,2022.2.5,MacIntel,62.5,right,,,,,,,,,spatial,p,right,1,1.233,2,0,6,1,1,,,,,,,
FO,2023-05-04_15h39.46.756,supdoc_online,2022.2.5,MacIntel,62.5,left,,,,,,,,,feature,p,left,1,1.513,2,1,7,0,1,,,,,,,
FO,2023-05-04_15h39.46.756,supdoc_online,2022.2.5,MacIntel,62.5,up,,,,,,,,,neither,p,up,1,1.434,2,2,8,2,1,,,,,,,
FO,2023-05-04_15h39.46.756,supdoc_online,2022.2.5,MacIntel,62.5,left,,,,,,,,,feature,p,up,0,2.114,3,0,9,0,1,,,,,,,
FO,2023-05-04_15h39.46.756,supdoc_online,2022.2.5,MacIntel,62.5,up,,,,,,,,,neither,p,right,0,1.504,3,1,10,2,1,,,,,,,
FO,2023-05-04_15h39.46.756,supdoc_online,2022.2.5,MacIntel,62.5,right,,,,,,,,,spatial,p,left,0,0.798,3,2,11,1,1,,,,,,,
FO,2023-05-04_15h39.46.756,supdoc_online,2022.2.5,MacIntel,62.5,,,,,,,,,,,p,,,,,,,,,space,2,1,5,1,1,21.511
FO,2023-05-04_15h39.46.756,supdoc_online,2022.2.5,MacIntel,62.5,left,,,,,,,,,feature,p,up,0,1.5,0,0,0,0,1,,,,,,,
FO,2023-05-04_15h39.46.756,supdoc_online,2022.2.5,MacIntel,62.5,right,,,,,,,,,spatial,p,right,1,1.015,0,1,1,1,1,,,,,,,
FO,2023-05-04_15h39.46.756,supdoc_online,2022.2.5,MacIntel,62.5,up,,,,,,,,,neither,p,right,0,1.052,0,2,2,2,1,,,,,,,
FO,2023-05-04_15h39.46.756,supdoc_online,2022.2.5,MacIntel,62.5,right,,,,,,,,,spatial,p,left,0,1.399,1,0,3,1,1,,,,,,,
FO,2023-05-04_15h39.46.756,supdoc_online,2022.2.5,MacIntel,62.5,up,,,,,,,,,neither,p,up,1,1.312,1,1,4,2,1,,,,,,,
FO,2023-05-04_15h39.46.756,supdoc_online,2022.2.5,MacIntel,62.5,left,,,,,,,,,feature,p,right,0,1.084,1,2,5,0,1,,,,,,,
FO,2023-05-04_15h39.46.756,supdoc_online,2022.2.5,MacIntel,62.5,right,,,,,,,,,spatial,p,right,1,1.184,2,0,6,1,1,,,,,,,
FO,2023-05-04_15h39.46.756,supdoc_online,2022.2.5,MacIntel,62.5,left,,,,,,,,,feature,p,left,1,1.032,2,1,7,0,1,,,,,,,
FO,2023-05-04_15h39.46.756,supdoc_online,2022.2.5,MacIntel,62.5,up,,,,,,,,,neither,p,right,0,1.404,2,2,8,2,1,,,,,,,
FO,2023-05-04_15h39.46.756,supdoc_online,2022.2.5,MacIntel,62.5,up,,,,,,,,,neither,p,right,0,0.949,3,0,9,2,1,,,,,,,
FO,2023-05-04_15h39.46.756,supdoc_online,2022.2.5,MacIntel,62.5,left,,,,,,,,,feature,p,left,1,1.521,3,1,10,0,1,,,,,,,
FO,2023-05-04_15h39.46.756,supdoc_online,2022.2.5,MacIntel,62.5,right,,,,,,,,,spatial,p,right,1,1.48,3,2,11,1,1,,,,,,,
FO,2023-05-04_15h39.46.756,supdoc_online,2022.2.5,MacIntel,62.5,,,,,,,,,,,p,,,,,,,,,,3,0,6,1,1,
FO,2023-05-04_15h39.46.756,supdoc_online,2022.2.5,MacIntel,62.5,left,,,,,,,,,feature,m,up,0,1.529,0,0,0,0,1,,,,,,,
FO,2023-05-04_15h39.46.756,supdoc_online,2022.2.5,MacIntel,62.5,right,,,,,,,,,spatial,m,right,1,2.101,0,1,1,1,1,,,,,,,
FO,2023-05-04_15h39.46.756,supdoc_online,2022.2.5,MacIntel,62.5,up,,,,,,,,,neither,m,up,1,1.18,0,2,2,2,1,,,,,,,
FO,2023-05-04_15h39.46.756,supdoc_online,2022.2.5,MacIntel,62.5,left,,,,,,,,,feature,m,right,0,1.104,1,0,3,0,1,,,,,,,
FO,2023-05-04_15h39.46.756,supdoc_online,2022.2.5,MacIntel,62.5,up,,,,,,,,,neither,m,right,0,1.372,1,1,4,2,1,,,,,,,
FO,2023-05-04_15h39.46.756,supdoc_online,2022.2.5,MacIntel,62.5,right,,,,,,,,,spatial,m,right,1,1.515,1,2,5,1,1,,,,,,,
FO,2023-05-04_15h39.46.756,supdoc_online,2022.2.5,MacIntel,62.5,right,,,,,,,,,spatial,m,up,0,1.75,2,0,6,1,1,,,,,,,
FO,2023-05-04_15h39.46.756,supdoc_online,2022.2.5,MacIntel,62.5,left,,,,,,,,,feature,m,left,1,2.349,2,1,7,0,1,,,,,,,
FO,2023-05-04_15h39.46.756,supdoc_online,2022.2.5,MacIntel,62.5,up,,,,,,,,,neither,m,up,1,1.248,2,2,8,2,1,,,,,,,
FO,2023-05-04_15h39.46.756,supdoc_online,2022.2.5,MacIntel,62.5,right,,,,,,,,,spatial,m,right,1,1.263,3,0,9,1,1,,,,,,,
FO,2023-05-04_15h39.46.756,supdoc_online,2022.2.5,MacIntel,62.5,left,,,,,,,,,feature,m,up,0,1.047,3,1,10,0,1,,,,,,,
FO,2023-05-04_15h39.46.756,supdoc_online,2022.2.5,MacIntel,62.5,up,,,,,,,,,neither,m,up,1,1.045,3,2,11,2,1,,,,,,,
FO,2023-05-04_15h39.46.756,supdoc_online,2022.2.5,MacIntel,62.5,,,,,,,,,,,m,,,,,,,,,space,3,1,7,0,1,14.824
FO,2023-05-04_15h39.46.756,supdoc_online,2022.2.5,MacIntel,62.5,left,,,,,,,,,feature,p,right,0,1.112,0,0,0,0,1,,,,,,,
FO,2023-05-04_15h39.46.756,supdoc_online,2022.2.5,MacIntel,62.5,up,,,,,,,,,neither,p,right,0,0.995,0,1,1,2,1,,,,,,,
FO,2023-05-04_15h39.46.756,supdoc_online,2022.2.5,MacIntel,62.5,right,,,,,,,,,spatial,p,right,1,1.096,0,2,2,1,1,,,,,,,
FO,2023-05-04_15h39.46.756,supdoc_online,2022.2.5,MacIntel,62.5,left,,,,,,,,,feature,p,up,0,1.03,1,0,3,0,1,,,,,,,
FO,2023-05-04_15h39.46.756,supdoc_online,2022.2.5,MacIntel,62.5,right,,,,,,,,,spatial,p,left,0,1.687,1,1,4,1,1,,,,,,,
FO,2023-05-04_15h39.46.756,supdoc_online,2022.2.5,MacIntel,62.5,up,,,,,,,,,neither,p,up,1,1.315,1,2,5,2,1,,,,,,,
FO,2023-05-04_15h39.46.756,supdoc_online,2022.2.5,MacIntel,62.5,left,,,,,,,,,feature,p,left,1,1.271,2,0,6,0,1,,,,,,,
FO,2023-05-04_15h39.46.756,supdoc_online,2022.2.5,MacIntel,62.5,up,,,,,,,,,neither,p,right,0,1.452,2,1,7,2,1,,,,,,,
FO,2023-05-04_15h39.46.756,supdoc_online,2022.2.5,MacIntel,62.5,right,,,,,,,,,spatial,p,right,1,1.032,2,2,8,1,1,,,,,,,
FO,2023-05-04_15h39.46.756,supdoc_online,2022.2.5,MacIntel,62.5,right,,,,,,,,,spatial,p,right,1,1.538,3,0,9,1,1,,,,,,,
FO,2023-05-04_15h39.46.756,supdoc_online,2022.2.5,MacIntel,62.5,left,,,,,,,,,feature,p,left,1,1.052,3,1,10,0,1,,,,,,,
FO,2023-05-04_15h39.46.756,supdoc_online,2022.2.5,MacIntel,62.5,up,,,,,,,,,neither,p,up,1,1.219,3,2,11,2,1,,,,,,,
FO,2023-05-04_15h39.46.756,supdoc_online,2022.2.5,MacIntel,62.5,,,,,,,,,,,p,,,,,,,,,,4,0,8,1,1,
FO,2023-05-04_15h39.46.756,supdoc_online,2022.2.5,MacIntel,62.5,right,,,,,,,,,spatial,m,right,1,1.532,0,0,0,1,1,,,,,,,
FO,2023-05-04_15h39.46.756,supdoc_online,2022.2.5,MacIntel,62.5,left,,,,,,,,,feature,m,up,0,1.722,0,1,1,0,1,,,,,,,
FO,2023-05-04_15h39.46.756,supdoc_online,2022.2.5,MacIntel,62.5,up,,,,,,,,,neither,m,up,1,1.128,0,2,2,2,1,,,,,,,
FO,2023-05-04_15h39.46.756,supdoc_online,2022.2.5,MacIntel,62.5,right,,,,,,,,,spatial,m,right,1,0.994,1,0,3,1,1,,,,,,,
FO,2023-05-04_15h39.46.756,supdoc_online,2022.2.5,MacIntel,62.5,left,,,,,,,,,feature,m,left,1,1.046,1,1,4,0,1,,,,,,,
FO,2023-05-04_15h39.46.756,supdoc_online,2022.2.5,MacIntel,62.5,up,,,,,,,,,neither,m,right,0,1.751,1,2,5,2,1,,,,,,,
FO,2023-05-04_15h39.46.756,supdoc_online,2022.2.5,MacIntel,62.5,left,,,,,,,,,feature,m,left,1,1.079,2,0,6,0,1,,,,,,,
FO,2023-05-04_15h39.46.756,supdoc_online,2022.2.5,MacIntel,62.5,up,,,,,,,,,neither,m,up,1,1.429,2,1,7,2,1,,,,,,,
FO,2023-05-04_15h39.46.756,supdoc_online,2022.2.5,MacIntel,62.5,right,,,,,,,,,spatial,m,right,1,0.867,2,2,8,1,1,,,,,,,
FO,2023-05-04_15h39.46.756,supdoc_online,2022.2.5,MacIntel,62.5,up,,,,,,,,,neither,m,up,1,1.236,3,0,9,2,1,,,,,,,
FO,2023-05-04_15h39.46.756,supdoc_online,2022.2.5,MacIntel,62.5,left,,,,,,,,,feature,m,up,0,1.414,3,1,10,0,1,,,,,,,
FO,2023-05-04_15h39.46.756,supdoc_online,2022.2.5,MacIntel,62.5,right,,,,,,,,,spatial,m,right,1,0.967,3,2,11,1,1,,,,,,,
FO,2023-05-04_15h39.46.756,supdoc_online,2022.2.5,MacIntel,62.5,,,,,,,,,,,m,,,,,,,,,space,4,1,9,0,1,14.294
FO,2023-05-04_15h39.46.756,supdoc_online,2022.2.5,MacIntel,62.5,up,,,,,,,,,neither,m,right,0,1.848,0,0,0,2,1,,,,,,,
FO,2023-05-04_15h39.46.756,supdoc_online,2022.2.5,MacIntel,62.5,left,,,,,,,,,feature,m,right,0,1.666,0,1,1,0,1,,,,,,,
FO,2023-05-04_15h39.46.756,supdoc_online,2022.2.5,MacIntel,62.5,right,,,,,,,,,spatial,m,right,1,1.298,0,2,2,1,1,,,,,,,
FO,2023-05-04_15h39.46.756,supdoc_online,2022.2.5,MacIntel,62.5,right,,,,,,,,,spatial,m,left,0,0.738,1,0,3,1,1,,,,,,,
FO,2023-05-04_15h39.46.756,supdoc_online,2022.2.5,MacIntel,62.5,up,,,,,,,,,neither,m,right,0,1.163,1,1,4,2,1,,,,,,,
FO,2023-05-04_15h39.46.756,supdoc_online,2022.2.5,MacIntel,62.5,left,,,,,,,,,feature,m,right,0,1.012,1,2,5,0,1,,,,,,,
FO,2023-05-04_15h39.46.756,supdoc_online,2022.2.5,MacIntel,62.5,left,,,,,,,,,feature,m,up,0,1.152,2,0,6,0,1,,,,,,,
FO,2023-05-04_15h39.46.756,supdoc_online,2022.2.5,MacIntel,62.5,up,,,,,,,,,neither,m,right,0,0.999,2,1,7,2,1,,,,,,,
FO,2023-05-04_15h39.46.756,supdoc_online,2022.2.5,MacIntel,62.5,right,,,,,,,,,spatial,m,right,1,0.862,2,2,8,1,1,,,,,,,
FO,2023-05-04_15h39.46.756,supdoc_online,2022.2.5,MacIntel,62.5,up,,,,,,,,,neither,m,right,0,1.029,3,0,9,2,1,,,,,,,
FO,2023-05-04_15h39.46.756,supdoc_online,2022.2.5,MacIntel,62.5,right,,,,,,,,,spatial,m,right,1,0.931,3,1,10,1,1,,,,,,,
FO,2023-05-04_15h39.46.756,supdoc_online,2022.2.5,MacIntel,62.5,left,,,,,,,,,feature,m,up,0,1.445,3,2,11,0,1,,,,,,,
FO,2023-05-04_15h39.46.756,supdoc_online,2022.2.5,MacIntel,62.5,,,,,,,,,,,m,,,,,,,,,,5,0,10,0,1,
FO,2023-05-04_15h39.46.756,supdoc_online,2022.2.5,MacIntel,62.5,left,,,,,,,,,feature,p,left,1,1.8,0,0,0,0,1,,,,,,,
FO,2023-05-04_15h39.46.756,supdoc_online,2022.2.5,MacIntel,62.5,right,,,,,,,,,spatial,p,right,1,1.148,0,1,1,1,1,,,,,,,
FO,2023-05-04_15h39.46.756,supdoc_online,2022.2.5,MacIntel,62.5,up,,,,,,,,,neither,p,right,0,1.687,0,2,2,2,1,,,,,,,
FO,2023-05-04_15h39.46.756,supdoc_online,2022.2.5,MacIntel,62.5,up,,,,,,,,,neither,p,up,1,1.453,1,0,3,2,1,,,,,,,
FO,2023-05-04_15h39.46.756,supdoc_online,2022.2.5,MacIntel,62.5,left,,,,,,,,,feature,p,left,1,0.985,1,1,4,0,1,,,,,,,
FO,2023-05-04_15h39.46.756,supdoc_online,2022.2.5,MacIntel,62.5,right,,,,,,,,,spatial,p,right,1,1.328,1,2,5,1,1,,,,,,,
FO,2023-05-04_15h39.46.756,supdoc_online,2022.2.5,MacIntel,62.5,right,,,,,,,,,spatial,p,right,1,0.979,2,0,6,1,1,,,,,,,
FO,2023-05-04_15h39.46.756,supdoc_online,2022.2.5,MacIntel,62.5,up,,,,,,,,,neither,p,right,0,1.681,2,1,7,2,1,,,,,,,
FO,2023-05-04_15h39.46.756,supdoc_online,2022.2.5,MacIntel,62.5,left,,,,,,,,,feature,p,left,1,1.981,2,2,8,0,1,,,,,,,
FO,2023-05-04_15h39.46.756,supdoc_online,2022.2.5,MacIntel,62.5,right,,,,,,,,,spatial,p,right,1,1.205,3,0,9,1,1,,,,,,,
FO,2023-05-04_15h39.46.756,supdoc_online,2022.2.5,MacIntel,62.5,up,,,,,,,,,neither,p,up,1,1.097,3,1,10,2,1,,,,,,,
FO,2023-05-04_15h39.46.756,supdoc_online,2022.2.5,MacIntel,62.5,left,,,,,,,,,feature,p,right,0,1.269,3,2,11,0,1,,,,,,,
FO,2023-05-04_15h39.46.756,supdoc_online,2022.2.5,MacIntel,62.5,,,,,,,,,,,p,,,,,,,,,space,5,1,11,1,1,12.928
