participant,date,expName,psychopyVersion,OS,frameRate,correctKey,prac_resp.keys,prac_resp.corr,prac_resp.rt,practiceTrials.thisRepN,practiceTrials.thisTrialN,practiceTrials.thisN,practiceTrials.thisIndex,practiceTrials.ran,condition,check_practice.thisRepN,check_practice.thisTrialN,check_practice.thisN,check_practice.thisIndex,check_practice.ran,display,test_resp.keys,test_resp.corr,test_resp.rt,trials.thisRepN,trials.thisTrialN,trials.thisN,trials.thisIndex,trials.ran,key_resp.keys,display_loop.thisRepN,display_loop.thisTrialN,display_loop.thisN,display_loop.thisIndex,display_loop.ran,key_resp.rt
XC,2023-06-16_14h02.39.606,supdoc_online,2022.2.5,Win32,59.5521677,,,,,,,,,,,,,,,,,,,,,,,,,,,,,,,
XC,2023-06-16_14h02.39.606,supdoc_online,2022.2.5,Win32,59.5521677,,,,,,,,,,,,,,,,,,,,,,,,,,,,,,,
XC,2023-06-16_14h02.39.606,supdoc_online,2022.2.5,Win32,59.5521677,right,right,0,11.0071,0,0,0,1,1,spatial,,,,,,,,,,,,,,,,,,,,,
XC,2023-06-16_14h02.39.606,supdoc_online,2022.2.5,Win32,59.5521677,left,left,0,11.5584,0,1,1,0,1,feature,,,,,,,,,,,,,,,,,,,,,
XC,2023-06-16_14h02.39.606,supdoc_online,2022.2.5,Win32,59.5521677,up,up,0,11.072,0,2,2,2,1,neither,,,,,,,,,,,,,,,,,,,,,
XC,2023-06-16_14h02.39.606,supdoc_online,2022.2.5,Win32,59.5521677,left,up,0,3.0596,1,0,3,0,1,feature,,,,,,,,,,,,,,,,,,,,,
XC,2023-06-16_14h02.39.606,supdoc_online,2022.2.5,Win32,59.5521677,right,right,0,4.1763,1,1,4,1,1,spatial,,,,,,,,,,,,,,,,,,,,,
XC,2023-06-16_14h02.39.606,supdoc_online,2022.2.5,Win32,59.5521677,up,right,0,8.6636,1,2,5,2,1,neither,,,,,,,,,,,,,,,,,,,,,
XC,2023-06-16_14h02.39.606,supdoc_online,2022.2.5,Win32,59.5521677,left,up,0,5.8261,2,0,6,0,1,feature,,,,,,,,,,,,,,,,,,,,,
XC,2023-06-16_14h02.39.606,supdoc_online,2022.2.5,Win32,59.5521677,up,right,0,13.8345,2,1,7,2,1,neither,,,,,,,,,,,,,,,,,,,,,
XC,2023-06-16_14h02.39.606,supdoc_online,2022.2.5,Win32,59.5521677,right,right,0,4.3462,2,2,8,1,1,spatial,,,,,,,,,,,,,,,,,,,,,
XC,2023-06-16_14h02.39.606,supdoc_online,2022.2.5,Win32,59.5521677,,,,,,,,,,,0,0,0,0,1,,,,,,,,,,,,,,,,
XC,2023-06-16_14h02.39.606,supdoc_online,2022.2.5,Win32,59.5521677,up,right,0,7.2124,0,0,0,2,1,neither,,,,,,,,,,,,,,,,,,,,,
XC,2023-06-16_14h02.39.606,supdoc_online,2022.2.5,Win32,59.5521677,right,left,0,4.2638,0,1,1,1,1,spatial,,,,,,,,,,,,,,,,,,,,,
XC,2023-06-16_14h02.39.606,supdoc_online,2022.2.5,Win32,59.5521677,left,right,0,7.0476,0,2,2,0,1,feature,,,,,,,,,,,,,,,,,,,,,
XC,2023-06-16_14h02.39.606,supdoc_online,2022.2.5,Win32,59.5521677,up,up,0,5.7787,1,0,3,2,1,neither,,,,,,,,,,,,,,,,,,,,,
XC,2023-06-16_14h02.39.606,supdoc_online,2022.2.5,Win32,59.5521677,right,right,0,2.4163,1,1,4,1,1,spatial,,,,,,,,,,,,,,,,,,,,,
XC,2023-06-16_14h02.39.606,supdoc_online,2022.2.5,Win32,59.5521677,left,left,0,5.0951,1,2,5,0,1,feature,,,,,,,,,,,,,,,,,,,,,
XC,2023-06-16_14h02.39.606,supdoc_online,2022.2.5,Win32,59.5521677,right,right,0,2.5996,2,0,6,1,1,spatial,,,,,,,,,,,,,,,,,,,,,
XC,2023-06-16_14h02.39.606,supdoc_online,2022.2.5,Win32,59.5521677,up,up,0,4.4837,2,1,7,2,1,neither,,,,,,,,,,,,,,,,,,,,,
XC,2023-06-16_14h02.39.606,supdoc_online,2022.2.5,Win32,59.5521677,left,left,0,6.142,2,2,8,0,1,feature,,,,,,,,,,,,,,,,,,,,,
XC,2023-06-16_14h02.39.606,supdoc_online,2022.2.5,Win32,59.5521677,,,,,,,,,,,,,,,,,,,,,,,,,,,,,,,
XC,2023-06-16_14h02.39.606,supdoc_online,2022.2.5,Win32,59.5521677,,,,,,,,,,,,,,,,,,,,,,,,,,,,,,,
XC,2023-06-16_14h02.39.606,supdoc_online,2022.2.5,Win32,59.5521677,left,,,,,,,,,feature,,,,,,m,left,1,5.5329,0,0,0,0,1,,,,,,,
XC,2023-06-16_14h02.39.606,supdoc_online,2022.2.5,Win32,59.5521677,right,,,,,,,,,spatial,,,,,,m,right,1,3.6148,0,1,1,1,1,,,,,,,
XC,2023-06-16_14h02.39.606,supdoc_online,2022.2.5,Win32,59.5521677,up,,,,,,,,,neither,,,,,,m,left,0,3.4492,0,2,2,2,1,,,,,,,
XC,2023-06-16_14h02.39.606,supdoc_online,2022.2.5,Win32,59.5521677,up,,,,,,,,,neither,,,,,,m,up,1,3.7074,1,0,3,2,1,,,,,,,
XC,2023-06-16_14h02.39.606,supdoc_online,2022.2.5,Win32,59.5521677,right,,,,,,,,,spatial,,,,,,m,right,1,5.5998,1,1,4,1,1,,,,,,,
XC,2023-06-16_14h02.39.606,supdoc_online,2022.2.5,Win32,59.5521677,left,,,,,,,,,feature,,,,,,m,up,0,4.3424,1,2,5,0,1,,,,,,,
XC,2023-06-16_14h02.39.606,supdoc_online,2022.2.5,Win32,59.5521677,left,,,,,,,,,feature,,,,,,m,left,1,5.5133,2,0,6,0,1,,,,,,,
XC,2023-06-16_14h02.39.606,supdoc_online,2022.2.5,Win32,59.5521677,up,,,,,,,,,neither,,,,,,m,up,1,3.3476,2,1,7,2,1,,,,,,,
XC,2023-06-16_14h02.39.606,supdoc_online,2022.2.5,Win32,59.5521677,right,,,,,,,,,spatial,,,,,,m,right,1,2.9457,2,2,8,1,1,,,,,,,
XC,2023-06-16_14h02.39.606,supdoc_online,2022.2.5,Win32,59.5521677,right,,,,,,,,,spatial,,,,,,m,left,0,2.8613,3,0,9,1,1,,,,,,,
XC,2023-06-16_14h02.39.606,supdoc_online,2022.2.5,Win32,59.5521677,left,,,,,,,,,feature,,,,,,m,right,0,3.7687,3,1,10,0,1,,,,,,,
XC,2023-06-16_14h02.39.606,supdoc_online,2022.2.5,Win32,59.5521677,up,,,,,,,,,neither,,,,,,m,up,1,3.8658,3,2,11,2,1,,,,,,,
XC,2023-06-16_14h02.39.606,supdoc_online,2022.2.5,Win32,59.5521677,,,,,,,,,,,,,,,,m,,,,,,,,,,0,0,0,0,1,
XC,2023-06-16_14h02.39.606,supdoc_online,2022.2.5,Win32,59.5521677,up,,,,,,,,,neither,,,,,,p,up,1,3.7548,0,0,0,2,1,,,,,,,
XC,2023-06-16_14h02.39.606,supdoc_online,2022.2.5,Win32,59.5521677,right,,,,,,,,,spatial,,,,,,p,left,0,2.0741,0,1,1,1,1,,,,,,,
XC,2023-06-16_14h02.39.606,supdoc_online,2022.2.5,Win32,59.5521677,left,,,,,,,,,feature,,,,,,p,right,0,5.4427,0,2,2,0,1,,,,,,,
XC,2023-06-16_14h02.39.606,supdoc_online,2022.2.5,Win32,59.5521677,up,,,,,,,,,neither,,,,,,p,up,1,3.4648,1,0,3,2,1,,,,,,,
XC,2023-06-16_14h02.39.606,supdoc_online,2022.2.5,Win32,59.5521677,right,,,,,,,,,spatial,,,,,,p,right,1,2.9201,1,1,4,1,1,,,,,,,
XC,2023-06-16_14h02.39.606,supdoc_online,2022.2.5,Win32,59.5521677,left,,,,,,,,,feature,,,,,,p,left,1,2.697,1,2,5,0,1,,,,,,,
XC,2023-06-16_14h02.39.606,supdoc_online,2022.2.5,Win32,59.5521677,right,,,,,,,,,spatial,,,,,,p,left,0,4.0593,2,0,6,1,1,,,,,,,
XC,2023-06-16_14h02.39.606,supdoc_online,2022.2.5,Win32,59.5521677,up,,,,,,,,,neither,,,,,,p,up,1,1.9024,2,1,7,2,1,,,,,,,
XC,2023-06-16_14h02.39.606,supdoc_online,2022.2.5,Win32,59.5521677,left,,,,,,,,,feature,,,,,,p,right,0,2.7435,2,2,8,0,1,,,,,,,
XC,2023-06-16_14h02.39.606,supdoc_online,2022.2.5,Win32,59.5521677,right,,,,,,,,,spatial,,,,,,p,right,1,1.7676,3,0,9,1,1,,,,,,,
XC,2023-06-16_14h02.39.606,supdoc_online,2022.2.5,Win32,59.5521677,up,,,,,,,,,neither,,,,,,p,up,1,3.1534,3,1,10,2,1,,,,,,,
XC,2023-06-16_14h02.39.606,supdoc_online,2022.2.5,Win32,59.5521677,left,,,,,,,,,feature,,,,,,p,left,1,2.459,3,2,11,0,1,,,,,,,
XC,2023-06-16_14h02.39.606,supdoc_online,2022.2.5,Win32,59.5521677,,,,,,,,,,,,,,,,p,,,,,,,,,space,0,1,1,1,1,37.2162
XC,2023-06-16_14h02.39.606,supdoc_online,2022.2.5,Win32,59.5521677,up,,,,,,,,,neither,,,,,,m,left,0,2.5778,0,0,0,2,1,,,,,,,
XC,2023-06-16_14h02.39.606,supdoc_online,2022.2.5,Win32,59.5521677,right,,,,,,,,,spatial,,,,,,m,right,1,2.8441,0,1,1,1,1,,,,,,,
XC,2023-06-16_14h02.39.606,supdoc_online,2022.2.5,Win32,59.5521677,left,,,,,,,,,feature,,,,,,m,left,1,3.7645,0,2,2,0,1,,,,,,,
XC,2023-06-16_14h02.39.606,supdoc_online,2022.2.5,Win32,59.5521677,up,,,,,,,,,neither,,,,,,m,right,0,1.8148,1,0,3,2,1,,,,,,,
XC,2023-06-16_14h02.39.606,supdoc_online,2022.2.5,Win32,59.5521677,right,,,,,,,,,spatial,,,,,,m,left,0,3.097,1,1,4,1,1,,,,,,,
XC,2023-06-16_14h02.39.606,supdoc_online,2022.2.5,Win32,59.5521677,left,,,,,,,,,feature,,,,,,m,right,0,3.131,1,2,5,0,1,,,,,,,
XC,2023-06-16_14h02.39.606,supdoc_online,2022.2.5,Win32,59.5521677,up,,,,,,,,,neither,,,,,,m,left,0,2.7644,2,0,6,2,1,,,,,,,
XC,2023-06-16_14h02.39.606,supdoc_online,2022.2.5,Win32,59.5521677,right,,,,,,,,,spatial,,,,,,m,left,0,2.7796,2,1,7,1,1,,,,,,,
XC,2023-06-16_14h02.39.606,supdoc_online,2022.2.5,Win32,59.5521677,left,,,,,,,,,feature,,,,,,m,right,0,2.6146,2,2,8,0,1,,,,,,,
XC,2023-06-16_14h02.39.606,supdoc_online,2022.2.5,Win32,59.5521677,up,,,,,,,,,neither,,,,,,m,left,0,2.4654,3,0,9,2,1,,,,,,,
XC,2023-06-16_14h02.39.606,supdoc_online,2022.2.5,Win32,59.5521677,left,,,,,,,,,feature,,,,,,m,right,0,2.9998,3,1,10,0,1,,,,,,,
XC,2023-06-16_14h02.39.606,supdoc_online,2022.2.5,Win32,59.5521677,right,,,,,,,,,spatial,,,,,,m,right,1,2.7982,3,2,11,1,1,,,,,,,
XC,2023-06-16_14h02.39.606,supdoc_online,2022.2.5,Win32,59.5521677,,,,,,,,,,,,,,,,m,,,,,,,,,,1,0,2,0,1,
XC,2023-06-16_14h02.39.606,supdoc_online,2022.2.5,Win32,59.5521677,left,,,,,,,,,feature,,,,,,p,left,1,3.7638,0,0,0,0,1,,,,,,,
XC,2023-06-16_14h02.39.606,supdoc_online,2022.2.5,Win32,59.5521677,right,,,,,,,,,spatial,,,,,,p,left,0,2.859,0,1,1,1,1,,,,,,,
XC,2023-06-16_14h02.39.606,supdoc_online,2022.2.5,Win32,59.5521677,up,,,,,,,,,neither,,,,,,p,up,1,2.1014,0,2,2,2,1,,,,,,,
XC,2023-06-16_14h02.39.606,supdoc_online,2022.2.5,Win32,59.5521677,left,,,,,,,,,feature,,,,,,p,right,0,3.1775,1,0,3,0,1,,,,,,,
XC,2023-06-16_14h02.39.606,supdoc_online,2022.2.5,Win32,59.5521677,right,,,,,,,,,spatial,,,,,,p,left,0,3.2656,1,1,4,1,1,,,,,,,
XC,2023-06-16_14h02.39.606,supdoc_online,2022.2.5,Win32,59.5521677,up,,,,,,,,,neither,,,,,,p,up,1,3.7093,1,2,5,2,1,,,,,,,
XC,2023-06-16_14h02.39.606,supdoc_online,2022.2.5,Win32,59.5521677,up,,,,,,,,,neither,,,,,,p,right,0,1.561,2,0,6,2,1,,,,,,,
XC,2023-06-16_14h02.39.606,supdoc_online,2022.2.5,Win32,59.5521677,left,,,,,,,,,feature,,,,,,p,up,0,3.1815,2,1,7,0,1,,,,,,,
XC,2023-06-16_14h02.39.606,supdoc_online,2022.2.5,Win32,59.5521677,right,,,,,,,,,spatial,,,,,,p,left,0,2.4754,2,2,8,1,1,,,,,,,
XC,2023-06-16_14h02.39.606,supdoc_online,2022.2.5,Win32,59.5521677,up,,,,,,,,,neither,,,,,,p,up,1,3.2598,3,0,9,2,1,,,,,,,
XC,2023-06-16_14h02.39.606,supdoc_online,2022.2.5,Win32,59.5521677,right,,,,,,,,,spatial,,,,,,p,right,1,2.73,3,1,10,1,1,,,,,,,
XC,2023-06-16_14h02.39.606,supdoc_online,2022.2.5,Win32,59.5521677,left,,,,,,,,,feature,,,,,,p,left,1,1.7628,3,2,11,0,1,,,,,,,
XC,2023-06-16_14h02.39.606,supdoc_online,2022.2.5,Win32,59.5521677,,,,,,,,,,,,,,,,p,,,,,,,,,space,1,1,3,1,1,53.8123
XC,2023-06-16_14h02.39.606,supdoc_online,2022.2.5,Win32,59.5521677,left,,,,,,,,,feature,,,,,,p,left,1,5.5912,0,0,0,0,1,,,,,,,
XC,2023-06-16_14h02.39.606,supdoc_online,2022.2.5,Win32,59.5521677,up,,,,,,,,,neither,,,,,,p,up,1,2.6488,0,1,1,2,1,,,,,,,
XC,2023-06-16_14h02.39.606,supdoc_online,2022.2.5,Win32,59.5521677,right,,,,,,,,,spatial,,,,,,p,right,1,4.7664,0,2,2,1,1,,,,,,,
XC,2023-06-16_14h02.39.606,supdoc_online,2022.2.5,Win32,59.5521677,left,,,,,,,,,feature,,,,,,p,left,1,1.9302,1,0,3,0,1,,,,,,,
XC,2023-06-16_14h02.39.606,supdoc_online,2022.2.5,Win32,59.5521677,right,,,,,,,,,spatial,,,,,,p,right,1,3.0472,1,1,4,1,1,,,,,,,
XC,2023-06-16_14h02.39.606,supdoc_online,2022.2.5,Win32,59.5521677,up,,,,,,,,,neither,,,,,,p,left,0,3.8923,1,2,5,2,1,,,,,,,
XC,2023-06-16_14h02.39.606,supdoc_online,2022.2.5,Win32,59.5521677,left,,,,,,,,,feature,,,,,,p,right,0,4.1848,2,0,6,0,1,,,,,,,
XC,2023-06-16_14h02.39.606,supdoc_online,2022.2.5,Win32,59.5521677,up,,,,,,,,,neither,,,,,,p,right,0,3.3166,2,1,7,2,1,,,,,,,
XC,2023-06-16_14h02.39.606,supdoc_online,2022.2.5,Win32,59.5521677,right,,,,,,,,,spatial,,,,,,p,right,1,3.9952,2,2,8,1,1,,,,,,,
XC,2023-06-16_14h02.39.606,supdoc_online,2022.2.5,Win32,59.5521677,right,,,,,,,,,spatial,,,,,,p,left,0,4.307,3,0,9,1,1,,,,,,,
XC,2023-06-16_14h02.39.606,supdoc_online,2022.2.5,Win32,59.5521677,left,,,,,,,,,feature,,,,,,p,left,1,4.2131,3,1,10,0,1,,,,,,,
XC,2023-06-16_14h02.39.606,supdoc_online,2022.2.5,Win32,59.5521677,up,,,,,,,,,neither,,,,,,p,up,1,1.7276,3,2,11,2,1,,,,,,,
XC,2023-06-16_14h02.39.606,supdoc_online,2022.2.5,Win32,59.5521677,,,,,,,,,,,,,,,,p,,,,,,,,,,2,0,4,1,1,
XC,2023-06-16_14h02.39.606,supdoc_online,2022.2.5,Win32,59.5521677,right,,,,,,,,,spatial,,,,,,m,right,1,3.2915,0,0,0,1,1,,,,,,,
XC,2023-06-16_14h02.39.606,supdoc_online,2022.2.5,Win32,59.5521677,up,,,,,,,,,neither,,,,,,m,up,1,3.1803,0,1,1,2,1,,,,,,,
XC,2023-06-16_14h02.39.606,supdoc_online,2022.2.5,Win32,59.5521677,left,,,,,,,,,feature,,,,,,m,left,1,3.8064,0,2,2,0,1,,,,,,,
XC,2023-06-16_14h02.39.606,supdoc_online,2022.2.5,Win32,59.5521677,up,,,,,,,,,neither,,,,,,m,up,1,2.7475,1,0,3,2,1,,,,,,,
XC,2023-06-16_14h02.39.606,supdoc_online,2022.2.5,Win32,59.5521677,left,,,,,,,,,feature,,,,,,m,right,0,3.8676,1,1,4,0,1,,,,,,,
XC,2023-06-16_14h02.39.606,supdoc_online,2022.2.5,Win32,59.5521677,right,,,,,,,,,spatial,,,,,,m,right,1,2.4039,1,2,5,1,1,,,,,,,
XC,2023-06-16_14h02.39.606,supdoc_online,2022.2.5,Win32,59.5521677,up,,,,,,,,,neither,,,,,,m,up,1,2.9916,2,0,6,2,1,,,,,,,
XC,2023-06-16_14h02.39.606,supdoc_online,2022.2.5,Win32,59.5521677,right,,,,,,,,,spatial,,,,,,m,right,1,1.9429,2,1,7,1,1,,,,,,,
XC,2023-06-16_14h02.39.606,supdoc_online,2022.2.5,Win32,59.5521677,left,,,,,,,,,feature,,,,,,m,left,1,2.5789,2,2,8,0,1,,,,,,,
XC,2023-06-16_14h02.39.606,supdoc_online,2022.2.5,Win32,59.5521677,up,,,,,,,,,neither,,,,,,m,up,1,1.9315,3,0,9,2,1,,,,,,,
XC,2023-06-16_14h02.39.606,supdoc_online,2022.2.5,Win32,59.5521677,right,,,,,,,,,spatial,,,,,,m,left,0,1.9671,3,1,10,1,1,,,,,,,
XC,2023-06-16_14h02.39.606,supdoc_online,2022.2.5,Win32,59.5521677,left,,,,,,,,,feature,,,,,,m,right,0,2.4005,3,2,11,0,1,,,,,,,
XC,2023-06-16_14h02.39.606,supdoc_online,2022.2.5,Win32,59.5521677,,,,,,,,,,,,,,,,m,,,,,,,,,space,2,1,5,0,1,41.5502
XC,2023-06-16_14h02.39.606,supdoc_online,2022.2.5,Win32,59.5521677,right,,,,,,,,,spatial,,,,,,m,right,1,3.0912,0,0,0,1,1,,,,,,,
XC,2023-06-16_14h02.39.606,supdoc_online,2022.2.5,Win32,59.5521677,left,,,,,,,,,feature,,,,,,m,left,1,2.4805,0,1,1,0,1,,,,,,,
XC,2023-06-16_14h02.39.606,supdoc_online,2022.2.5,Win32,59.5521677,up,,,,,,,,,neither,,,,,,m,up,1,3.2467,0,2,2,2,1,,,,,,,
XC,2023-06-16_14h02.39.606,supdoc_online,2022.2.5,Win32,59.5521677,up,,,,,,,,,neither,,,,,,m,right,0,2.0527,1,0,3,2,1,,,,,,,
XC,2023-06-16_14h02.39.606,supdoc_online,2022.2.5,Win32,59.5521677,right,,,,,,,,,spatial,,,,,,m,left,0,2.9601,1,1,4,1,1,,,,,,,
XC,2023-06-16_14h02.39.606,supdoc_online,2022.2.5,Win32,59.5521677,left,,,,,,,,,feature,,,,,,m,left,1,3.0813,1,2,5,0,1,,,,,,,
XC,2023-06-16_14h02.39.606,supdoc_online,2022.2.5,Win32,59.5521677,right,,,,,,,,,spatial,,,,,,m,left,0,1.4148,2,0,6,1,1,,,,,,,
XC,2023-06-16_14h02.39.606,supdoc_online,2022.2.5,Win32,59.5521677,up,,,,,,,,,neither,,,,,,m,up,1,1.4176,2,1,7,2,1,,,,,,,
XC,2023-06-16_14h02.39.606,supdoc_online,2022.2.5,Win32,59.5521677,left,,,,,,,,,feature,,,,,,m,right,0,2.3095,2,2,8,0,1,,,,,,,
XC,2023-06-16_14h02.39.606,supdoc_online,2022.2.5,Win32,59.5521677,left,,,,,,,,,feature,,,,,,m,left,1,2.2935,3,0,9,0,1,,,,,,,
XC,2023-06-16_14h02.39.606,supdoc_online,2022.2.5,Win32,59.5521677,up,,,,,,,,,neither,,,,,,m,up,1,1.7981,3,1,10,2,1,,,,,,,
XC,2023-06-16_14h02.39.606,supdoc_online,2022.2.5,Win32,59.5521677,right,,,,,,,,,spatial,,,,,,m,right,1,2.9361,3,2,11,1,1,,,,,,,
XC,2023-06-16_14h02.39.606,supdoc_online,2022.2.5,Win32,59.5521677,,,,,,,,,,,,,,,,m,,,,,,,,,,3,0,6,0,1,
XC,2023-06-16_14h02.39.606,supdoc_online,2022.2.5,Win32,59.5521677,up,,,,,,,,,neither,,,,,,p,up,1,1.7947,0,0,0,2,1,,,,,,,
XC,2023-06-16_14h02.39.606,supdoc_online,2022.2.5,Win32,59.5521677,right,,,,,,,,,spatial,,,,,,p,left,0,2.6305,0,1,1,1,1,,,,,,,
XC,2023-06-16_14h02.39.606,supdoc_online,2022.2.5,Win32,59.5521677,left,,,,,,,,,feature,,,,,,p,right,0,1.9582,0,2,2,0,1,,,,,,,
XC,2023-06-16_14h02.39.606,supdoc_online,2022.2.5,Win32,59.5521677,right,,,,,,,,,spatial,,,,,,p,left,0,1.9447,1,0,3,1,1,,,,,,,
XC,2023-06-16_14h02.39.606,supdoc_online,2022.2.5,Win32,59.5521677,left,,,,,,,,,feature,,,,,,p,left,1,2.3802,1,1,4,0,1,,,,,,,
XC,2023-06-16_14h02.39.606,supdoc_online,2022.2.5,Win32,59.5521677,up,,,,,,,,,neither,,,,,,p,right,0,2.0597,1,2,5,2,1,,,,,,,
XC,2023-06-16_14h02.39.606,supdoc_online,2022.2.5,Win32,59.5521677,right,,,,,,,,,spatial,,,,,,p,left,0,4.0317,2,0,6,1,1,,,,,,,
XC,2023-06-16_14h02.39.606,supdoc_online,2022.2.5,Win32,59.5521677,up,,,,,,,,,neither,,,,,,p,up,1,1.5343,2,1,7,2,1,,,,,,,
XC,2023-06-16_14h02.39.606,supdoc_online,2022.2.5,Win32,59.5521677,left,,,,,,,,,feature,,,,,,p,right,0,2.7965,2,2,8,0,1,,,,,,,
XC,2023-06-16_14h02.39.606,supdoc_online,2022.2.5,Win32,59.5521677,left,,,,,,,,,feature,,,,,,p,left,1,2.5464,3,0,9,0,1,,,,,,,
XC,2023-06-16_14h02.39.606,supdoc_online,2022.2.5,Win32,59.5521677,up,,,,,,,,,neither,,,,,,p,up,1,1.8435,3,1,10,2,1,,,,,,,
XC,2023-06-16_14h02.39.606,supdoc_online,2022.2.5,Win32,59.5521677,right,,,,,,,,,spatial,,,,,,p,left,0,2.2593,3,2,11,1,1,,,,,,,
XC,2023-06-16_14h02.39.606,supdoc_online,2022.2.5,Win32,59.5521677,,,,,,,,,,,,,,,,p,,,,,,,,,space,3,1,7,1,1,29.4707
XC,2023-06-16_14h02.39.606,supdoc_online,2022.2.5,Win32,59.5521677,up,,,,,,,,,neither,,,,,,p,up,1,1.917,0,0,0,2,1,,,,,,,
XC,2023-06-16_14h02.39.606,supdoc_online,2022.2.5,Win32,59.5521677,left,,,,,,,,,feature,,,,,,p,right,0,1.5044,0,1,1,0,1,,,,,,,
XC,2023-06-16_14h02.39.606,supdoc_online,2022.2.5,Win32,59.5521677,right,,,,,,,,,spatial,,,,,,p,right,1,2.7189,0,2,2,1,1,,,,,,,
XC,2023-06-16_14h02.39.606,supdoc_online,2022.2.5,Win32,59.5521677,up,,,,,,,,,neither,,,,,,p,up,1,1.6795,1,0,3,2,1,,,,,,,
XC,2023-06-16_14h02.39.606,supdoc_online,2022.2.5,Win32,59.5521677,left,,,,,,,,,feature,,,,,,p,left,1,1.2673,1,1,4,0,1,,,,,,,
XC,2023-06-16_14h02.39.606,supdoc_online,2022.2.5,Win32,59.5521677,right,,,,,,,,,spatial,,,,,,p,left,0,1.3403,1,2,5,1,1,,,,,,,
XC,2023-06-16_14h02.39.606,supdoc_online,2022.2.5,Win32,59.5521677,right,,,,,,,,,spatial,,,,,,p,left,0,1.1139,2,0,6,1,1,,,,,,,
XC,2023-06-16_14h02.39.606,supdoc_online,2022.2.5,Win32,59.5521677,left,,,,,,,,,feature,,,,,,p,right,0,0.8931,2,1,7,0,1,,,,,,,
XC,2023-06-16_14h02.39.606,supdoc_online,2022.2.5,Win32,59.5521677,up,,,,,,,,,neither,,,,,,p,left,0,1.6333,2,2,8,2,1,,,,,,,
XC,2023-06-16_14h02.39.606,supdoc_online,2022.2.5,Win32,59.5521677,right,,,,,,,,,spatial,,,,,,p,right,1,3.4104,3,0,9,1,1,,,,,,,
XC,2023-06-16_14h02.39.606,supdoc_online,2022.2.5,Win32,59.5521677,up,,,,,,,,,neither,,,,,,p,up,1,2.1806,3,1,10,2,1,,,,,,,
XC,2023-06-16_14h02.39.606,supdoc_online,2022.2.5,Win32,59.5521677,left,,,,,,,,,feature,,,,,,p,right,0,3.9975,3,2,11,0,1,,,,,,,
XC,2023-06-16_14h02.39.606,supdoc_online,2022.2.5,Win32,59.5521677,,,,,,,,,,,,,,,,p,,,,,,,,,,4,0,8,1,1,
XC,2023-06-16_14h02.39.606,supdoc_online,2022.2.5,Win32,59.5521677,up,,,,,,,,,neither,,,,,,m,up,1,1.9628,0,0,0,2,1,,,,,,,
XC,2023-06-16_14h02.39.606,supdoc_online,2022.2.5,Win32,59.5521677,left,,,,,,,,,feature,,,,,,m,left,1,1.6521,0,1,1,0,1,,,,,,,
XC,2023-06-16_14h02.39.606,supdoc_online,2022.2.5,Win32,59.5521677,right,,,,,,,,,spatial,,,,,,m,right,1,2.0972,0,2,2,1,1,,,,,,,
XC,2023-06-16_14h02.39.606,supdoc_online,2022.2.5,Win32,59.5521677,left,,,,,,,,,feature,,,,,,m,left,1,1.3501,1,0,3,0,1,,,,,,,
XC,2023-06-16_14h02.39.606,supdoc_online,2022.2.5,Win32,59.5521677,up,,,,,,,,,neither,,,,,,m,up,1,2.5651,1,1,4,2,1,,,,,,,
XC,2023-06-16_14h02.39.606,supdoc_online,2022.2.5,Win32,59.5521677,right,,,,,,,,,spatial,,,,,,m,right,1,2.369,1,2,5,1,1,,,,,,,
XC,2023-06-16_14h02.39.606,supdoc_online,2022.2.5,Win32,59.5521677,right,,,,,,,,,spatial,,,,,,m,left,0,2.5322,2,0,6,1,1,,,,,,,
XC,2023-06-16_14h02.39.606,supdoc_online,2022.2.5,Win32,59.5521677,left,,,,,,,,,feature,,,,,,m,left,1,1.5349,2,1,7,0,1,,,,,,,
XC,2023-06-16_14h02.39.606,supdoc_online,2022.2.5,Win32,59.5521677,up,,,,,,,,,neither,,,,,,m,left,0,1.8796,2,2,8,2,1,,,,,,,
XC,2023-06-16_14h02.39.606,supdoc_online,2022.2.5,Win32,59.5521677,right,,,,,,,,,spatial,,,,,,m,right,1,1.9527,3,0,9,1,1,,,,,,,
XC,2023-06-16_14h02.39.606,supdoc_online,2022.2.5,Win32,59.5521677,up,,,,,,,,,neither,,,,,,m,up,1,2.0939,3,1,10,2,1,,,,,,,
XC,2023-06-16_14h02.39.606,supdoc_online,2022.2.5,Win32,59.5521677,left,,,,,,,,,feature,,,,,,m,left,1,2.0822,3,2,11,0,1,,,,,,,
XC,2023-06-16_14h02.39.606,supdoc_online,2022.2.5,Win32,59.5521677,,,,,,,,,,,,,,,,m,,,,,,,,,space,4,1,9,0,1,12.9578
XC,2023-06-16_14h02.39.606,supdoc_online,2022.2.5,Win32,59.5521677,right,,,,,,,,,spatial,,,,,,p,right,1,2.2778,0,0,0,1,1,,,,,,,
XC,2023-06-16_14h02.39.606,supdoc_online,2022.2.5,Win32,59.5521677,left,,,,,,,,,feature,,,,,,p,left,1,4.7154,0,1,1,0,1,,,,,,,
XC,2023-06-16_14h02.39.606,supdoc_online,2022.2.5,Win32,59.5521677,up,,,,,,,,,neither,,,,,,p,up,1,1.8949,0,2,2,2,1,,,,,,,
XC,2023-06-16_14h02.39.606,supdoc_online,2022.2.5,Win32,59.5521677,right,,,,,,,,,spatial,,,,,,p,right,1,3.7165,1,0,3,1,1,,,,,,,
XC,2023-06-16_14h02.39.606,supdoc_online,2022.2.5,Win32,59.5521677,left,,,,,,,,,feature,,,,,,p,left,1,0.8852,1,1,4,0,1,,,,,,,
XC,2023-06-16_14h02.39.606,supdoc_online,2022.2.5,Win32,59.5521677,up,,,,,,,,,neither,,,,,,p,up,1,1.3899,1,2,5,2,1,,,,,,,
XC,2023-06-16_14h02.39.606,supdoc_online,2022.2.5,Win32,59.5521677,up,,,,,,,,,neither,,,,,,p,up,1,1.3838,2,0,6,2,1,,,,,,,
XC,2023-06-16_14h02.39.606,supdoc_online,2022.2.5,Win32,59.5521677,left,,,,,,,,,feature,,,,,,p,up,0,2.2988,2,1,7,0,1,,,,,,,
XC,2023-06-16_14h02.39.606,supdoc_online,2022.2.5,Win32,59.5521677,right,,,,,,,,,spatial,,,,,,p,left,0,1.6773,2,2,8,1,1,,,,,,,
XC,2023-06-16_14h02.39.606,supdoc_online,2022.2.5,Win32,59.5521677,left,,,,,,,,,feature,,,,,,p,left,1,1.8654,3,0,9,0,1,,,,,,,
XC,2023-06-16_14h02.39.606,supdoc_online,2022.2.5,Win32,59.5521677,right,,,,,,,,,spatial,,,,,,p,right,1,1.9826,3,1,10,1,1,,,,,,,
XC,2023-06-16_14h02.39.606,supdoc_online,2022.2.5,Win32,59.5521677,up,,,,,,,,,neither,,,,,,p,up,1,2.2813,3,2,11,2,1,,,,,,,
XC,2023-06-16_14h02.39.606,supdoc_online,2022.2.5,Win32,59.5521677,,,,,,,,,,,,,,,,p,,,,,,,,,,5,0,10,1,1,
XC,2023-06-16_14h02.39.606,supdoc_online,2022.2.5,Win32,59.5521677,up,,,,,,,,,neither,,,,,,m,left,0,2.0957,0,0,0,2,1,,,,,,,
XC,2023-06-16_14h02.39.606,supdoc_online,2022.2.5,Win32,59.5521677,left,,,,,,,,,feature,,,,,,m,up,0,1.282,0,1,1,0,1,,,,,,,
XC,2023-06-16_14h02.39.606,supdoc_online,2022.2.5,Win32,59.5521677,right,,,,,,,,,spatial,,,,,,m,up,0,2.0129,0,2,2,1,1,,,,,,,
XC,2023-06-16_14h02.39.606,supdoc_online,2022.2.5,Win32,59.5521677,left,,,,,,,,,feature,,,,,,m,left,1,3.0023,1,0,3,0,1,,,,,,,
XC,2023-06-16_14h02.39.606,supdoc_online,2022.2.5,Win32,59.5521677,up,,,,,,,,,neither,,,,,,m,up,1,3.6108,1,1,4,2,1,,,,,,,
XC,2023-06-16_14h02.39.606,supdoc_online,2022.2.5,Win32,59.5521677,right,,,,,,,,,spatial,,,,,,m,right,1,2.7962,1,2,5,1,1,,,,,,,
XC,2023-06-16_14h02.39.606,supdoc_online,2022.2.5,Win32,59.5521677,left,,,,,,,,,feature,,,,,,m,left,1,1.4851,2,0,6,0,1,,,,,,,
XC,2023-06-16_14h02.39.606,supdoc_online,2022.2.5,Win32,59.5521677,right,,,,,,,,,spatial,,,,,,m,left,0,1.0514,2,1,7,1,1,,,,,,,
XC,2023-06-16_14h02.39.606,supdoc_online,2022.2.5,Win32,59.5521677,up,,,,,,,,,neither,,,,,,m,up,1,1.5105,2,2,8,2,1,,,,,,,
XC,2023-06-16_14h02.39.606,supdoc_online,2022.2.5,Win32,59.5521677,up,,,,,,,,,neither,,,,,,m,up,1,2.2825,3,0,9,2,1,,,,,,,
XC,2023-06-16_14h02.39.606,supdoc_online,2022.2.5,Win32,59.5521677,right,,,,,,,,,spatial,,,,,,m,right,1,1.6515,3,1,10,1,1,,,,,,,
XC,2023-06-16_14h02.39.606,supdoc_online,2022.2.5,Win32,59.5521677,left,,,,,,,,,feature,,,,,,m,left,1,2.7964,3,2,11,0,1,,,,,,,
XC,2023-06-16_14h02.39.606,supdoc_online,2022.2.5,Win32,59.5521677,,,,,,,,,,,,,,,,m,,,,,,,,,space,5,1,11,0,1,4.2286
