"X.Scale","Y.Scale","image1","image2","corr_acc","xPosition","FW_resp.keys","FW_resp.corr","FW_resp.rt","word_loop_set1.thisRepN","word_loop_set1.thisTrialN","word_loop_set1.thisN","word_loop_set1.thisIndex","word_loop_set1.ran","trialID","imFile","imFile2","corr","diff","position","screen","x_scale","y_scale","date","expName","psychopyVersion","OS","frameRate","xResolution","yResolution","key_resp_3.keys","key_resp_3.rt","word_loop_set2.thisRepN","word_loop_set2.thisTrialN","word_loop_set2.thisN","word_loop_set2.thisIndex","word_loop_set2.ran","word_loop_set3.thisRepN","word_loop_set3.thisTrialN","word_loop_set3.thisN","word_loop_set3.thisIndex","word_loop_set3.ran"
0.0287,0.0297,"Stimuli/Words/word42.jpg","Stimuli/Words/word41.jpg","d",0,"d",1,0.9139,0,0,0,0,1,57,"Stimuli/Words/word58.jpg","Stimuli/Words/word58.jpg","s","third",2,0,0.0287,0.0297,"2021-10-07_17h15.48.216","01_word_task_central","2020.2.4","Win32",60,2560,1440,"",NA,NA,NA,NA,NA,NA,NA,NA,NA,NA,NA
NA,NA,"Stimuli/Words/word25.jpg","Stimuli/Words/word26.jpg","d",0,"d",1,0.7999,0,1,1,1,1,76,"Stimuli/Words/word35.jpg","Stimuli/Words/word36.jpg","d","second",2,0,0.0287,0.0297,"2021-10-07_17h15.48.216","01_word_task_central","2020.2.4","Win32",60,2560,1440,"",NA,NA,NA,NA,NA,NA,NA,NA,NA,NA,NA
NA,NA,"Stimuli/Words/word38.jpg","Stimuli/Words/word38.jpg","s",0,"d",0,0.489,0,2,2,2,1,4,"Stimuli/Words/word21.jpg","Stimuli/Words/word21.jpg","s","second",2,0,0.0287,0.0297,"2021-10-07_17h15.48.216","01_word_task_central","2020.2.4","Win32",60,2560,1440,"",NA,NA,NA,NA,NA,NA,NA,NA,NA,NA,NA
NA,NA,"Stimuli/Words/word09.jpg","Stimuli/Words/word10.jpg","d",0,"d",1,0.8224,0,3,3,3,1,107,"Stimuli/Words/word46.jpg","Stimuli/Words/word45.jpg","d","third",2,0,0.0287,0.0297,"2021-10-07_17h15.48.216","01_word_task_central","2020.2.4","Win32",60,2560,1440,"",NA,NA,NA,NA,NA,NA,NA,NA,NA,NA,NA
NA,NA,"Stimuli/Words/word01.jpg","Stimuli/Words/word02.jpg","d",0,"d",1,0.6394,0,4,4,4,1,100,"Stimuli/Words/word19.jpg","Stimuli/Words/word20.jpg","d","third",2,0,0.0287,0.0297,"2021-10-07_17h15.48.216","01_word_task_central","2020.2.4","Win32",60,2560,1440,"",NA,NA,NA,NA,NA,NA,NA,NA,NA,NA,NA
NA,NA,"Stimuli/Words/word17.jpg","Stimuli/Words/word18.jpg","d",0,"d",1,0.5856,0,5,5,5,1,58,"Stimuli/Words/word05.jpg","Stimuli/Words/word06.jpg","d","second",2,0,0.0287,0.0297,"2021-10-07_17h15.48.216","01_word_task_central","2020.2.4","Win32",60,2560,1440,"",NA,NA,NA,NA,NA,NA,NA,NA,NA,NA,NA
NA,NA,"Stimuli/Words/word24.jpg","Stimuli/Words/word24.jpg","s",0,"s",1,0.5406,0,6,6,6,1,109,"Stimuli/Words/word48.jpg","Stimuli/Words/word47.jpg","d","third",2,0,0.0287,0.0297,"2021-10-07_17h15.48.216","01_word_task_central","2020.2.4","Win32",60,2560,1440,"",NA,NA,NA,NA,NA,NA,NA,NA,NA,NA,NA
NA,NA,"Stimuli/Words/word12.jpg","Stimuli/Words/word12.jpg","s",0,"s",1,0.7966,0,7,7,7,1,61,"Stimuli/Words/word08.jpg","Stimuli/Words/word07.jpg","d","second",2,0,0.0287,0.0297,"2021-10-07_17h15.48.216","01_word_task_central","2020.2.4","Win32",60,2560,1440,"",NA,NA,NA,NA,NA,NA,NA,NA,NA,NA,NA
NA,NA,"Stimuli/Words/word08.jpg","Stimuli/Words/word07.jpg","d",0,"d",1,0.4337,0,8,8,8,1,41,"Stimuli/Words/word18.jpg","Stimuli/Words/word18.jpg","s","third",2,0,0.0287,0.0297,"2021-10-07_17h15.48.216","01_word_task_central","2020.2.4","Win32",60,2560,1440,"",NA,NA,NA,NA,NA,NA,NA,NA,NA,NA,NA
NA,NA,"Stimuli/Words/word41.jpg","Stimuli/Words/word42.jpg","d",0,"d",1,0.989,0,9,9,9,1,65,"Stimuli/Words/word24.jpg","Stimuli/Words/word23.jpg","d","second",2,0,0.0287,0.0297,"2021-10-07_17h15.48.216","01_word_task_central","2020.2.4","Win32",60,2560,1440,"",NA,NA,NA,NA,NA,NA,NA,NA,NA,NA,NA
NA,NA,"Stimuli/Words/word48.jpg","Stimuli/Words/word47.jpg","d",0,"d",1,0.5976,0,10,10,10,1,88,"Stimuli/Words/word03.jpg","Stimuli/Words/word04.jpg","d","third",2,0,0.0287,0.0297,"2021-10-07_17h15.48.216","01_word_task_central","2020.2.4","Win32",60,2560,1440,"",NA,NA,NA,NA,NA,NA,NA,NA,NA,NA,NA
NA,NA,"Stimuli/Words/word24.jpg","Stimuli/Words/word23.jpg","d",0,"d",1,0.4946,0,11,11,11,1,28,"Stimuli/Words/word01.jpg","Stimuli/Words/word01.jpg","s","third",2,0,0.0287,0.0297,"2021-10-07_17h15.48.216","01_word_task_central","2020.2.4","Win32",60,2560,1440,"",NA,NA,NA,NA,NA,NA,NA,NA,NA,NA,NA
NA,NA,"Stimuli/Words/word58.jpg","Stimuli/Words/word58.jpg","s",0,"d",0,0.5247,0,12,12,12,1,102,"Stimuli/Words/word41.jpg","Stimuli/Words/word42.jpg","d","third",2,0,0.0287,0.0297,"2021-10-07_17h15.48.216","01_word_task_central","2020.2.4","Win32",60,2560,1440,"",NA,NA,NA,NA,NA,NA,NA,NA,NA,NA,NA
NA,NA,"Stimuli/Words/word18.jpg","Stimuli/Words/word18.jpg","s",0,"d",0,0.8544,0,13,13,13,1,35,"Stimuli/Words/word12.jpg","Stimuli/Words/word12.jpg","s","third",2,0,0.0287,0.0297,"2021-10-07_17h15.48.216","01_word_task_central","2020.2.4","Win32",60,2560,1440,"",NA,NA,NA,NA,NA,NA,NA,NA,NA,NA,NA
NA,NA,"Stimuli/Words/word54.jpg","Stimuli/Words/word54.jpg","s",0,"s",1,0.7575,0,14,14,14,1,0,"Stimuli/Words/word05.jpg","Stimuli/Words/word05.jpg","s","second",2,0,0.0287,0.0297,"2021-10-07_17h15.48.216","01_word_task_central","2020.2.4","Win32",60,2560,1440,"",NA,NA,NA,NA,NA,NA,NA,NA,NA,NA,NA
NA,NA,"Stimuli/Words/word05.jpg","Stimuli/Words/word06.jpg","d",0,"d",1,0.5581,0,15,15,15,1,90,"Stimuli/Words/word09.jpg","Stimuli/Words/word10.jpg","d","third",2,0,0.0287,0.0297,"2021-10-07_17h15.48.216","01_word_task_central","2020.2.4","Win32",60,2560,1440,"",NA,NA,NA,NA,NA,NA,NA,NA,NA,NA,NA
NA,NA,"Stimuli/Words/word57.jpg","Stimuli/Words/word57.jpg","s",0,"s",1,0.662,0,16,16,16,1,53,"Stimuli/Words/word50.jpg","Stimuli/Words/word50.jpg","s","third",2,0,0.0287,0.0297,"2021-10-07_17h15.48.216","01_word_task_central","2020.2.4","Win32",60,2560,1440,"",NA,NA,NA,NA,NA,NA,NA,NA,NA,NA,NA
NA,NA,"Stimuli/Words/word19.jpg","Stimuli/Words/word20.jpg","d",0,"d",1,0.4821,0,17,17,17,1,77,"Stimuli/Words/word36.jpg","Stimuli/Words/word35.jpg","d","second",2,0,0.0287,0.0297,"2021-10-07_17h15.48.216","01_word_task_central","2020.2.4","Win32",60,2560,1440,"",NA,NA,NA,NA,NA,NA,NA,NA,NA,NA,NA
NA,NA,"Stimuli/Words/word46.jpg","Stimuli/Words/word46.jpg","s",0,"s",1,0.5492,0,18,18,18,1,103,"Stimuli/Words/word42.jpg","Stimuli/Words/word41.jpg","d","third",2,0,0.0287,0.0297,"2021-10-07_17h15.48.216","01_word_task_central","2020.2.4","Win32",60,2560,1440,"",NA,NA,NA,NA,NA,NA,NA,NA,NA,NA,NA
NA,NA,"Stimuli/Words/word03.jpg","Stimuli/Words/word04.jpg","d",0,"d",1,0.5459,0,19,19,19,1,66,"Stimuli/Words/word25.jpg","Stimuli/Words/word26.jpg","d","second",2,0,0.0287,0.0297,"2021-10-07_17h15.48.216","01_word_task_central","2020.2.4","Win32",60,2560,1440,"",NA,NA,NA,NA,NA,NA,NA,NA,NA,NA,NA
NA,NA,"Stimuli/Words/word35.jpg","Stimuli/Words/word36.jpg","d",0,"d",1,0.4563,0,20,20,20,1,21,"Stimuli/Words/word38.jpg","Stimuli/Words/word38.jpg","s","second",2,0,0.0287,0.0297,"2021-10-07_17h15.48.216","01_word_task_central","2020.2.4","Win32",60,2560,1440,"",NA,NA,NA,NA,NA,NA,NA,NA,NA,NA,NA
NA,NA,"Stimuli/Words/word49.jpg","Stimuli/Words/word49.jpg","s",0,"s",1,0.5163,0,21,21,21,1,22,"Stimuli/Words/word39.jpg","Stimuli/Words/word39.jpg","s","second",2,0,0.0287,0.0297,"2021-10-07_17h15.48.216","01_word_task_central","2020.2.4","Win32",60,2560,1440,"",NA,NA,NA,NA,NA,NA,NA,NA,NA,NA,NA
NA,NA,"Stimuli/Words/word45.jpg","Stimuli/Words/word46.jpg","d",0,"d",1,0.5231,0,22,22,22,1,31,"Stimuli/Words/word04.jpg","Stimuli/Words/word04.jpg","s","third",2,0,0.0287,0.0297,"2021-10-07_17h15.48.216","01_word_task_central","2020.2.4","Win32",60,2560,1440,"",NA,NA,NA,NA,NA,NA,NA,NA,NA,NA,NA
NA,NA,"Stimuli/Words/word39.jpg","Stimuli/Words/word39.jpg","s",0,"s",1,0.4224,0,23,23,23,1,86,"Stimuli/Words/word01.jpg","Stimuli/Words/word02.jpg","d","third",2,0,0.0287,0.0297,"2021-10-07_17h15.48.216","01_word_task_central","2020.2.4","Win32",60,2560,1440,"",NA,NA,NA,NA,NA,NA,NA,NA,NA,NA,NA
NA,NA,"Stimuli/Words/word27.jpg","Stimuli/Words/word27.jpg","s",0,"s",1,0.5232,0,24,24,24,1,7,"Stimuli/Words/word24.jpg","Stimuli/Words/word24.jpg","s","second",2,0,0.0287,0.0297,"2021-10-07_17h15.48.216","01_word_task_central","2020.2.4","Win32",60,2560,1440,"",NA,NA,NA,NA,NA,NA,NA,NA,NA,NA,NA
NA,NA,"Stimuli/Words/word36.jpg","Stimuli/Words/word35.jpg","d",0,"d",1,0.5841,0,25,25,25,1,25,"Stimuli/Words/word54.jpg","Stimuli/Words/word54.jpg","s","second",2,0,0.0287,0.0297,"2021-10-07_17h15.48.216","01_word_task_central","2020.2.4","Win32",60,2560,1440,"",NA,NA,NA,NA,NA,NA,NA,NA,NA,NA,NA
NA,NA,"Stimuli/Words/word50.jpg","Stimuli/Words/word50.jpg","s",0,"s",1,0.4749,0,26,26,26,1,98,"Stimuli/Words/word17.jpg","Stimuli/Words/word18.jpg","d","third",2,0,0.0287,0.0297,"2021-10-07_17h15.48.216","01_word_task_central","2020.2.4","Win32",60,2560,1440,"",NA,NA,NA,NA,NA,NA,NA,NA,NA,NA,NA
NA,NA,"Stimuli/Words/word04.jpg","Stimuli/Words/word04.jpg","s",0,"s",1,0.4644,0,27,27,27,1,106,"Stimuli/Words/word45.jpg","Stimuli/Words/word46.jpg","d","third",2,0,0.0287,0.0297,"2021-10-07_17h15.48.216","01_word_task_central","2020.2.4","Win32",60,2560,1440,"",NA,NA,NA,NA,NA,NA,NA,NA,NA,NA,NA
NA,NA,"Stimuli/Words/word05.jpg","Stimuli/Words/word05.jpg","s",0,"s",1,0.536,0,28,28,28,1,10,"Stimuli/Words/word27.jpg","Stimuli/Words/word27.jpg","s","second",2,0,0.0287,0.0297,"2021-10-07_17h15.48.216","01_word_task_central","2020.2.4","Win32",60,2560,1440,"",NA,NA,NA,NA,NA,NA,NA,NA,NA,NA,NA
NA,NA,"Stimuli/Words/word01.jpg","Stimuli/Words/word01.jpg","s",0,"s",1,0.4501,0,29,29,29,1,49,"Stimuli/Words/word46.jpg","Stimuli/Words/word46.jpg","s","third",2,0,0.0287,0.0297,"2021-10-07_17h15.48.216","01_word_task_central","2020.2.4","Win32",60,2560,1440,"",NA,NA,NA,NA,NA,NA,NA,NA,NA,NA,NA
NA,NA,"Stimuli/Words/word46.jpg","Stimuli/Words/word45.jpg","d",0,"d",1,0.7451,0,30,30,30,1,52,"Stimuli/Words/word49.jpg","Stimuli/Words/word49.jpg","s","third",2,0,0.0287,0.0297,"2021-10-07_17h15.48.216","01_word_task_central","2020.2.4","Win32",60,2560,1440,"",NA,NA,NA,NA,NA,NA,NA,NA,NA,NA,NA
NA,NA,"Stimuli/Words/word21.jpg","Stimuli/Words/word21.jpg","s",0,"s",1,0.4671,0,31,31,31,1,56,"Stimuli/Words/word57.jpg","Stimuli/Words/word57.jpg","s","third",2,0,0.0287,0.0297,"2021-10-07_17h15.48.216","01_word_task_central","2020.2.4","Win32",60,2560,1440,"",NA,NA,NA,NA,NA,NA,NA,NA,NA,NA,NA
NA,NA,"Stimuli/Words/word02.jpg","Stimuli/Words/word02.jpg","s",0,"s",1,0.4578,NA,NA,NA,NA,NA,34,"Stimuli/Words/word11.jpg","Stimuli/Words/word11.jpg","s","third",2,0,0.0287,0.0297,"2021-10-07_17h15.48.216","01_word_task_central","2020.2.4","Win32",60,2560,1440,"space",7.0234,0,0,0,0,1,NA,NA,NA,NA,NA
NA,NA,"Stimuli/Words/word44.jpg","Stimuli/Words/word43.jpg","d",0,"d",1,0.4831,NA,NA,NA,NA,NA,48,"Stimuli/Words/word45.jpg","Stimuli/Words/word45.jpg","s","third",2,0,0.0287,0.0297,"2021-10-07_17h15.48.216","01_word_task_central","2020.2.4","Win32",60,2560,1440,"",NA,0,1,1,1,1,NA,NA,NA,NA,NA
NA,NA,"Stimuli/Words/word11.jpg","Stimuli/Words/word11.jpg","s",0,"s",1,0.726,NA,NA,NA,NA,NA,69,"Stimuli/Words/word28.jpg","Stimuli/Words/word27.jpg","d","second",2,0,0.0287,0.0297,"2021-10-07_17h15.48.216","01_word_task_central","2020.2.4","Win32",60,2560,1440,"",NA,0,2,2,2,1,NA,NA,NA,NA,NA
NA,NA,"Stimuli/Words/word04.jpg","Stimuli/Words/word03.jpg","d",0,"d",1,0.4696,NA,NA,NA,NA,NA,68,"Stimuli/Words/word27.jpg","Stimuli/Words/word28.jpg","d","second",2,0,0.0287,0.0297,"2021-10-07_17h15.48.216","01_word_task_central","2020.2.4","Win32",60,2560,1440,"",NA,0,3,3,3,1,NA,NA,NA,NA,NA
NA,NA,"Stimuli/Words/word10.jpg","Stimuli/Words/word10.jpg","s",0,"s",1,0.4951,NA,NA,NA,NA,NA,83,"Stimuli/Words/word54.jpg","Stimuli/Words/word53.jpg","d","second",2,0,0.0287,0.0297,"2021-10-07_17h15.48.216","01_word_task_central","2020.2.4","Win32",60,2560,1440,"",NA,0,4,4,4,1,NA,NA,NA,NA,NA
NA,NA,"Stimuli/Words/word28.jpg","Stimuli/Words/word27.jpg","d",0,"d",1,0.4961,NA,NA,NA,NA,NA,92,"Stimuli/Words/word11.jpg","Stimuli/Words/word12.jpg","d","third",2,0,0.0287,0.0297,"2021-10-07_17h15.48.216","01_word_task_central","2020.2.4","Win32",60,2560,1440,"",NA,0,5,5,5,1,NA,NA,NA,NA,NA
NA,NA,"Stimuli/Words/word40.jpg","Stimuli/Words/word39.jpg","d",0,"d",1,0.5946,NA,NA,NA,NA,NA,24,"Stimuli/Words/word53.jpg","Stimuli/Words/word53.jpg","s","second",2,0,0.0287,0.0297,"2021-10-07_17h15.48.216","01_word_task_central","2020.2.4","Win32",60,2560,1440,"",NA,0,6,6,6,1,NA,NA,NA,NA,NA
NA,NA,"Stimuli/Words/word53.jpg","Stimuli/Words/word53.jpg","s",0,"s",1,0.6114,NA,NA,NA,NA,NA,105,"Stimuli/Words/word44.jpg","Stimuli/Words/word43.jpg","d","third",2,0,0.0287,0.0297,"2021-10-07_17h15.48.216","01_word_task_central","2020.2.4","Win32",60,2560,1440,"",NA,0,7,7,7,1,NA,NA,NA,NA,NA
NA,NA,"Stimuli/Words/word45.jpg","Stimuli/Words/word45.jpg","s",0,"s",1,0.5888,NA,NA,NA,NA,NA,101,"Stimuli/Words/word20.jpg","Stimuli/Words/word19.jpg","d","third",2,0,0.0287,0.0297,"2021-10-07_17h15.48.216","01_word_task_central","2020.2.4","Win32",60,2560,1440,"",NA,0,8,8,8,1,NA,NA,NA,NA,NA
NA,NA,"Stimuli/Words/word22.jpg","Stimuli/Words/word21.jpg","d",0,"d",1,0.4172,NA,NA,NA,NA,NA,42,"Stimuli/Words/word19.jpg","Stimuli/Words/word19.jpg","s","third",2,0,0.0287,0.0297,"2021-10-07_17h15.48.216","01_word_task_central","2020.2.4","Win32",60,2560,1440,"",NA,0,9,9,9,1,NA,NA,NA,NA,NA
NA,NA,"Stimuli/Words/word11.jpg","Stimuli/Words/word12.jpg","d",0,"d",1,0.6354,NA,NA,NA,NA,NA,85,"Stimuli/Words/word56.jpg","Stimuli/Words/word55.jpg","d","second",2,0,0.0287,0.0297,"2021-10-07_17h15.48.216","01_word_task_central","2020.2.4","Win32",60,2560,1440,"",NA,0,10,10,10,1,NA,NA,NA,NA,NA
NA,NA,"Stimuli/Words/word09.jpg","Stimuli/Words/word09.jpg","s",0,"s",1,0.5352,NA,NA,NA,NA,NA,91,"Stimuli/Words/word10.jpg","Stimuli/Words/word09.jpg","d","third",2,0,0.0287,0.0297,"2021-10-07_17h15.48.216","01_word_task_central","2020.2.4","Win32",60,2560,1440,"",NA,0,11,11,11,1,NA,NA,NA,NA,NA
NA,NA,"Stimuli/Words/word55.jpg","Stimuli/Words/word56.jpg","d",0,"d",1,0.5025,NA,NA,NA,NA,NA,89,"Stimuli/Words/word04.jpg","Stimuli/Words/word03.jpg","d","third",2,0,0.0287,0.0297,"2021-10-07_17h15.48.216","01_word_task_central","2020.2.4","Win32",60,2560,1440,"",NA,0,12,12,12,1,NA,NA,NA,NA,NA
NA,NA,"Stimuli/Words/word36.jpg","Stimuli/Words/word36.jpg","s",0,"s",1,0.5111,NA,NA,NA,NA,NA,44,"Stimuli/Words/word41.jpg","Stimuli/Words/word41.jpg","s","third",2,0,0.0287,0.0297,"2021-10-07_17h15.48.216","01_word_task_central","2020.2.4","Win32",60,2560,1440,"",NA,0,13,13,13,1,NA,NA,NA,NA,NA
NA,NA,"Stimuli/Words/word57.jpg","Stimuli/Words/word58.jpg","d",0,"d",1,0.4526,NA,NA,NA,NA,NA,23,"Stimuli/Words/word40.jpg","Stimuli/Words/word40.jpg","s","second",2,0,0.0287,0.0297,"2021-10-07_17h15.48.216","01_word_task_central","2020.2.4","Win32",60,2560,1440,"",NA,0,14,14,14,1,NA,NA,NA,NA,NA
NA,NA,"Stimuli/Words/word26.jpg","Stimuli/Words/word26.jpg","s",0,"s",1,0.6211,NA,NA,NA,NA,NA,110,"Stimuli/Words/word49.jpg","Stimuli/Words/word50.jpg","d","third",2,0,0.0287,0.0297,"2021-10-07_17h15.48.216","01_word_task_central","2020.2.4","Win32",60,2560,1440,"",NA,0,15,15,15,1,NA,NA,NA,NA,NA
NA,NA,"Stimuli/Words/word49.jpg","Stimuli/Words/word50.jpg","d",0,"d",1,0.7292,NA,NA,NA,NA,NA,72,"Stimuli/Words/word31.jpg","Stimuli/Words/word32.jpg","d","second",2,0,0.0287,0.0297,"2021-10-07_17h15.48.216","01_word_task_central","2020.2.4","Win32",60,2560,1440,"",NA,0,16,16,16,1,NA,NA,NA,NA,NA
NA,NA,"Stimuli/Words/word31.jpg","Stimuli/Words/word31.jpg","s",0,"s",1,0.2538,NA,NA,NA,NA,NA,73,"Stimuli/Words/word32.jpg","Stimuli/Words/word31.jpg","d","second",2,0,0.0287,0.0297,"2021-10-07_17h15.48.216","01_word_task_central","2020.2.4","Win32",60,2560,1440,"",NA,0,17,17,17,1,NA,NA,NA,NA,NA
NA,NA,"Stimuli/Words/word27.jpg","Stimuli/Words/word28.jpg","d",0,"d",1,0.4991,NA,NA,NA,NA,NA,19,"Stimuli/Words/word36.jpg","Stimuli/Words/word36.jpg","s","second",2,0,0.0287,0.0297,"2021-10-07_17h15.48.216","01_word_task_central","2020.2.4","Win32",60,2560,1440,"",NA,0,18,18,18,1,NA,NA,NA,NA,NA
NA,NA,"Stimuli/Words/word32.jpg","Stimuli/Words/word31.jpg","d",0,"d",1,0.63,NA,NA,NA,NA,NA,32,"Stimuli/Words/word09.jpg","Stimuli/Words/word09.jpg","s","third",2,0,0.0287,0.0297,"2021-10-07_17h15.48.216","01_word_task_central","2020.2.4","Win32",60,2560,1440,"",NA,0,19,19,19,1,NA,NA,NA,NA,NA
NA,NA,"Stimuli/Words/word40.jpg","Stimuli/Words/word40.jpg","s",0,"s",1,0.6773,NA,NA,NA,NA,NA,33,"Stimuli/Words/word10.jpg","Stimuli/Words/word10.jpg","s","third",2,0,0.0287,0.0297,"2021-10-07_17h15.48.216","01_word_task_central","2020.2.4","Win32",60,2560,1440,"",NA,0,20,20,20,1,NA,NA,NA,NA,NA
NA,NA,"Stimuli/Words/word56.jpg","Stimuli/Words/word55.jpg","d",0,"d",1,0.8882,NA,NA,NA,NA,NA,78,"Stimuli/Words/word37.jpg","Stimuli/Words/word38.jpg","d","second",2,0,0.0287,0.0297,"2021-10-07_17h15.48.216","01_word_task_central","2020.2.4","Win32",60,2560,1440,"",NA,0,21,21,21,1,NA,NA,NA,NA,NA
NA,NA,"Stimuli/Words/word26.jpg","Stimuli/Words/word25.jpg","d",0,"d",1,0.7696,NA,NA,NA,NA,NA,81,"Stimuli/Words/word40.jpg","Stimuli/Words/word39.jpg","d","second",2,0,0.0287,0.0297,"2021-10-07_17h15.48.216","01_word_task_central","2020.2.4","Win32",60,2560,1440,"",NA,0,22,22,22,1,NA,NA,NA,NA,NA
NA,NA,"Stimuli/Words/word31.jpg","Stimuli/Words/word32.jpg","d",0,"d",1,0.7221,NA,NA,NA,NA,NA,63,"Stimuli/Words/word22.jpg","Stimuli/Words/word21.jpg","d","second",2,0,0.0287,0.0297,"2021-10-07_17h15.48.216","01_word_task_central","2020.2.4","Win32",60,2560,1440,"",NA,0,23,23,23,1,NA,NA,NA,NA,NA
NA,NA,"Stimuli/Words/word41.jpg","Stimuli/Words/word41.jpg","s",0,"s",1,0.5118,NA,NA,NA,NA,NA,26,"Stimuli/Words/word55.jpg","Stimuli/Words/word55.jpg","s","second",2,0,0.0287,0.0297,"2021-10-07_17h15.48.216","01_word_task_central","2020.2.4","Win32",60,2560,1440,"",NA,0,24,24,24,1,NA,NA,NA,NA,NA
NA,NA,"Stimuli/Words/word19.jpg","Stimuli/Words/word19.jpg","s",0,"s",1,0.4983,NA,NA,NA,NA,NA,84,"Stimuli/Words/word55.jpg","Stimuli/Words/word56.jpg","d","second",2,0,0.0287,0.0297,"2021-10-07_17h15.48.216","01_word_task_central","2020.2.4","Win32",60,2560,1440,"",NA,0,25,25,25,1,NA,NA,NA,NA,NA
NA,NA,"Stimuli/Words/word20.jpg","Stimuli/Words/word19.jpg","d",0,"d",1,0.4396,NA,NA,NA,NA,NA,67,"Stimuli/Words/word26.jpg","Stimuli/Words/word25.jpg","d","second",2,0,0.0287,0.0297,"2021-10-07_17h15.48.216","01_word_task_central","2020.2.4","Win32",60,2560,1440,"",NA,0,26,26,26,1,NA,NA,NA,NA,NA
NA,NA,"Stimuli/Words/word10.jpg","Stimuli/Words/word09.jpg","d",0,"d",1,0.7252,NA,NA,NA,NA,NA,114,"Stimuli/Words/word57.jpg","Stimuli/Words/word58.jpg","d","third",2,0,0.0287,0.0297,"2021-10-07_17h15.48.216","01_word_task_central","2020.2.4","Win32",60,2560,1440,"",NA,0,27,27,27,1,NA,NA,NA,NA,NA
NA,NA,"Stimuli/Words/word55.jpg","Stimuli/Words/word55.jpg","s",0,"s",1,0.5993,NA,NA,NA,NA,NA,14,"Stimuli/Words/word31.jpg","Stimuli/Words/word31.jpg","s","second",2,0,0.0287,0.0297,"2021-10-07_17h15.48.216","01_word_task_central","2020.2.4","Win32",60,2560,1440,"",NA,0,28,28,28,1,NA,NA,NA,NA,NA
NA,NA,"Stimuli/Words/word54.jpg","Stimuli/Words/word53.jpg","d",0,"d",1,0.4258,NA,NA,NA,NA,NA,9,"Stimuli/Words/word26.jpg","Stimuli/Words/word26.jpg","s","second",2,0,0.0287,0.0297,"2021-10-07_17h15.48.216","01_word_task_central","2020.2.4","Win32",60,2560,1440,"",NA,0,29,29,29,1,NA,NA,NA,NA,NA
NA,NA,"Stimuli/Words/word12.jpg","Stimuli/Words/word11.jpg","d",0,"d",1,0.4776,NA,NA,NA,NA,NA,29,"Stimuli/Words/word02.jpg","Stimuli/Words/word02.jpg","s","third",2,0,0.0287,0.0297,"2021-10-07_17h15.48.216","01_word_task_central","2020.2.4","Win32",60,2560,1440,"",NA,0,30,30,30,1,NA,NA,NA,NA,NA
NA,NA,"Stimuli/Words/word37.jpg","Stimuli/Words/word38.jpg","d",0,"d",1,0.8498,NA,NA,NA,NA,NA,93,"Stimuli/Words/word12.jpg","Stimuli/Words/word11.jpg","d","third",2,0,0.0287,0.0297,"2021-10-07_17h15.48.216","01_word_task_central","2020.2.4","Win32",60,2560,1440,"",NA,0,31,31,31,1,NA,NA,NA,NA,NA
NA,NA,"Stimuli/Words/word35.jpg","Stimuli/Words/word35.jpg","s",0,"s",1,0.3977,NA,NA,NA,NA,NA,16,"Stimuli/Words/word33.jpg","Stimuli/Words/word33.jpg","s","second",2,0,0.0287,0.0297,"2021-10-07_17h15.48.216","01_word_task_central","2020.2.4","Win32",60,2560,1440,"space",8.8065,NA,NA,NA,NA,NA,0,0,0,0,1
NA,NA,"Stimuli/Words/word48.jpg","Stimuli/Words/word48.jpg","s",0,"d",0,0.4159,NA,NA,NA,NA,NA,46,"Stimuli/Words/word43.jpg","Stimuli/Words/word43.jpg","s","third",2,0,0.0287,0.0297,"2021-10-07_17h15.48.216","01_word_task_central","2020.2.4","Win32",60,2560,1440,"",NA,NA,NA,NA,NA,NA,0,1,1,1,1
NA,NA,"Stimuli/Words/word07.jpg","Stimuli/Words/word08.jpg","d",0,"d",1,0.5595,NA,NA,NA,NA,NA,62,"Stimuli/Words/word21.jpg","Stimuli/Words/word22.jpg","d","second",2,0,0.0287,0.0297,"2021-10-07_17h15.48.216","01_word_task_central","2020.2.4","Win32",60,2560,1440,"",NA,NA,NA,NA,NA,NA,0,2,2,2,1
NA,NA,"Stimuli/Words/word14.jpg","Stimuli/Words/word14.jpg","s",0,"s",1,0.6312,NA,NA,NA,NA,NA,18,"Stimuli/Words/word35.jpg","Stimuli/Words/word35.jpg","s","second",2,0,0.0287,0.0297,"2021-10-07_17h15.48.216","01_word_task_central","2020.2.4","Win32",60,2560,1440,"",NA,NA,NA,NA,NA,NA,0,3,3,3,1
NA,NA,"Stimuli/Words/word53.jpg","Stimuli/Words/word54.jpg","d",0,"d",1,0.45,NA,NA,NA,NA,NA,11,"Stimuli/Words/word28.jpg","Stimuli/Words/word28.jpg","s","second",2,0,0.0287,0.0297,"2021-10-07_17h15.48.216","01_word_task_central","2020.2.4","Win32",60,2560,1440,"",NA,NA,NA,NA,NA,NA,0,4,4,4,1
NA,NA,"Stimuli/Words/word38.jpg","Stimuli/Words/word37.jpg","d",0,"d",1,0.4495,NA,NA,NA,NA,NA,82,"Stimuli/Words/word53.jpg","Stimuli/Words/word54.jpg","d","second",2,0,0.0287,0.0297,"2021-10-07_17h15.48.216","01_word_task_central","2020.2.4","Win32",60,2560,1440,"",NA,NA,NA,NA,NA,NA,0,5,5,5,1
NA,NA,"Stimuli/Words/word51.jpg","Stimuli/Words/word52.jpg","d",0,"d",1,0.6282,NA,NA,NA,NA,NA,20,"Stimuli/Words/word37.jpg","Stimuli/Words/word37.jpg","s","second",2,0,0.0287,0.0297,"2021-10-07_17h15.48.216","01_word_task_central","2020.2.4","Win32",60,2560,1440,"",NA,NA,NA,NA,NA,NA,0,6,6,6,1
NA,NA,"Stimuli/Words/word52.jpg","Stimuli/Words/word52.jpg","s",0,"s",1,0.3538,NA,NA,NA,NA,NA,27,"Stimuli/Words/word56.jpg","Stimuli/Words/word56.jpg","s","second",2,0,0.0287,0.0297,"2021-10-07_17h15.48.216","01_word_task_central","2020.2.4","Win32",60,2560,1440,"",NA,NA,NA,NA,NA,NA,0,7,7,7,1
NA,NA,"Stimuli/Words/word42.jpg","Stimuli/Words/word42.jpg","s",0,"s",1,0.4432,NA,NA,NA,NA,NA,75,"Stimuli/Words/word34.jpg","Stimuli/Words/word33.jpg","d","second",2,0,0.0287,0.0297,"2021-10-07_17h15.48.216","01_word_task_central","2020.2.4","Win32",60,2560,1440,"",NA,NA,NA,NA,NA,NA,0,8,8,8,1
NA,NA,"Stimuli/Words/word34.jpg","Stimuli/Words/word34.jpg","s",0,"s",1,0.3901,NA,NA,NA,NA,NA,51,"Stimuli/Words/word48.jpg","Stimuli/Words/word48.jpg","s","third",2,0,0.0287,0.0297,"2021-10-07_17h15.48.216","01_word_task_central","2020.2.4","Win32",60,2560,1440,"",NA,NA,NA,NA,NA,NA,0,9,9,9,1
NA,NA,"Stimuli/Words/word08.jpg","Stimuli/Words/word08.jpg","s",0,"s",1,0.289,NA,NA,NA,NA,NA,2,"Stimuli/Words/word07.jpg","Stimuli/Words/word07.jpg","s","second",2,0,0.0287,0.0297,"2021-10-07_17h15.48.216","01_word_task_central","2020.2.4","Win32",60,2560,1440,"",NA,NA,NA,NA,NA,NA,0,10,10,10,1
NA,NA,"Stimuli/Words/word13.jpg","Stimuli/Words/word14.jpg","d",0,"s",0,0.3335,NA,NA,NA,NA,NA,17,"Stimuli/Words/word34.jpg","Stimuli/Words/word34.jpg","s","second",2,0,0.0287,0.0297,"2021-10-07_17h15.48.216","01_word_task_central","2020.2.4","Win32",60,2560,1440,"",NA,NA,NA,NA,NA,NA,0,11,11,11,1
NA,NA,"Stimuli/Words/word29.jpg","Stimuli/Words/word29.jpg","s",0,"s",1,0.584,NA,NA,NA,NA,NA,54,"Stimuli/Words/word51.jpg","Stimuli/Words/word51.jpg","s","third",2,0,0.0287,0.0297,"2021-10-07_17h15.48.216","01_word_task_central","2020.2.4","Win32",60,2560,1440,"",NA,NA,NA,NA,NA,NA,0,12,12,12,1
NA,NA,"Stimuli/Words/word56.jpg","Stimuli/Words/word56.jpg","s",0,"s",1,0.4162,NA,NA,NA,NA,NA,55,"Stimuli/Words/word52.jpg","Stimuli/Words/word52.jpg","s","third",2,0,0.0287,0.0297,"2021-10-07_17h15.48.216","01_word_task_central","2020.2.4","Win32",60,2560,1440,"",NA,NA,NA,NA,NA,NA,0,13,13,13,1
NA,NA,"Stimuli/Words/word02.jpg","Stimuli/Words/word01.jpg","d",0,"d",1,0.4339,NA,NA,NA,NA,NA,3,"Stimuli/Words/word08.jpg","Stimuli/Words/word08.jpg","s","second",2,0,0.0287,0.0297,"2021-10-07_17h15.48.216","01_word_task_central","2020.2.4","Win32",60,2560,1440,"",NA,NA,NA,NA,NA,NA,0,14,14,14,1
NA,NA,"Stimuli/Words/word58.jpg","Stimuli/Words/word57.jpg","d",0,"d",1,0.771,NA,NA,NA,NA,NA,6,"Stimuli/Words/word23.jpg","Stimuli/Words/word23.jpg","s","second",2,0,0.0287,0.0297,"2021-10-07_17h15.48.216","01_word_task_central","2020.2.4","Win32",60,2560,1440,"",NA,NA,NA,NA,NA,NA,0,15,15,15,1
NA,NA,"Stimuli/Words/word51.jpg","Stimuli/Words/word51.jpg","s",0,"s",1,0.4462,NA,NA,NA,NA,NA,59,"Stimuli/Words/word06.jpg","Stimuli/Words/word05.jpg","d","second",2,0,0.0287,0.0297,"2021-10-07_17h15.48.216","01_word_task_central","2020.2.4","Win32",60,2560,1440,"",NA,NA,NA,NA,NA,NA,0,16,16,16,1
NA,NA,"Stimuli/Words/word06.jpg","Stimuli/Words/word05.jpg","d",0,"d",1,0.3926,NA,NA,NA,NA,NA,37,"Stimuli/Words/word14.jpg","Stimuli/Words/word14.jpg","s","third",2,0,0.0287,0.0297,"2021-10-07_17h15.48.216","01_word_task_central","2020.2.4","Win32",60,2560,1440,"",NA,NA,NA,NA,NA,NA,0,17,17,17,1
NA,NA,"Stimuli/Words/word37.jpg","Stimuli/Words/word37.jpg","s",0,"s",1,0.3825,NA,NA,NA,NA,NA,45,"Stimuli/Words/word42.jpg","Stimuli/Words/word42.jpg","s","third",2,0,0.0287,0.0297,"2021-10-07_17h15.48.216","01_word_task_central","2020.2.4","Win32",60,2560,1440,"",NA,NA,NA,NA,NA,NA,0,18,18,18,1
NA,NA,"Stimuli/Words/word33.jpg","Stimuli/Words/word33.jpg","s",0,"s",1,0.4152,NA,NA,NA,NA,NA,47,"Stimuli/Words/word44.jpg","Stimuli/Words/word44.jpg","s","third",2,0,0.0287,0.0297,"2021-10-07_17h15.48.216","01_word_task_central","2020.2.4","Win32",60,2560,1440,"",NA,NA,NA,NA,NA,NA,0,19,19,19,1
NA,NA,"Stimuli/Words/word28.jpg","Stimuli/Words/word28.jpg","s",0,"s",1,0.4159,NA,NA,NA,NA,NA,60,"Stimuli/Words/word07.jpg","Stimuli/Words/word08.jpg","d","second",2,0,0.0287,0.0297,"2021-10-07_17h15.48.216","01_word_task_central","2020.2.4","Win32",60,2560,1440,"",NA,NA,NA,NA,NA,NA,0,20,20,20,1
NA,NA,"Stimuli/Words/word23.jpg","Stimuli/Words/word23.jpg","s",0,"s",1,0.3834,NA,NA,NA,NA,NA,87,"Stimuli/Words/word02.jpg","Stimuli/Words/word01.jpg","d","third",2,0,0.0287,0.0297,"2021-10-07_17h15.48.216","01_word_task_central","2020.2.4","Win32",60,2560,1440,"",NA,NA,NA,NA,NA,NA,0,21,21,21,1
NA,NA,"Stimuli/Words/word07.jpg","Stimuli/Words/word07.jpg","s",0,"s",1,0.4339,NA,NA,NA,NA,NA,111,"Stimuli/Words/word50.jpg","Stimuli/Words/word49.jpg","d","third",2,0,0.0287,0.0297,"2021-10-07_17h15.48.216","01_word_task_central","2020.2.4","Win32",60,2560,1440,"",NA,NA,NA,NA,NA,NA,0,22,22,22,1
NA,NA,"Stimuli/Words/word44.jpg","Stimuli/Words/word44.jpg","s",0,"s",1,0.3608,NA,NA,NA,NA,NA,8,"Stimuli/Words/word25.jpg","Stimuli/Words/word25.jpg","s","second",2,0,0.0287,0.0297,"2021-10-07_17h15.48.216","01_word_task_central","2020.2.4","Win32",60,2560,1440,"",NA,NA,NA,NA,NA,NA,0,23,23,23,1
NA,NA,"Stimuli/Words/word30.jpg","Stimuli/Words/word29.jpg","d",0,"d",1,0.3888,NA,NA,NA,NA,NA,71,"Stimuli/Words/word30.jpg","Stimuli/Words/word29.jpg","d","second",2,0,0.0287,0.0297,"2021-10-07_17h15.48.216","01_word_task_central","2020.2.4","Win32",60,2560,1440,"",NA,NA,NA,NA,NA,NA,0,24,24,24,1
NA,NA,"Stimuli/Words/word25.jpg","Stimuli/Words/word25.jpg","s",0,"d",0,0.3896,NA,NA,NA,NA,NA,12,"Stimuli/Words/word29.jpg","Stimuli/Words/word29.jpg","s","second",2,0,0.0287,0.0297,"2021-10-07_17h15.48.216","01_word_task_central","2020.2.4","Win32",60,2560,1440,"",NA,NA,NA,NA,NA,NA,0,25,25,25,1
NA,NA,"Stimuli/Words/word43.jpg","Stimuli/Words/word43.jpg","s",0,"s",1,0.3913,NA,NA,NA,NA,NA,115,"Stimuli/Words/word58.jpg","Stimuli/Words/word57.jpg","d","third",2,0,0.0287,0.0297,"2021-10-07_17h15.48.216","01_word_task_central","2020.2.4","Win32",60,2560,1440,"",NA,NA,NA,NA,NA,NA,0,26,26,26,1
NA,NA,"Stimuli/Words/word43.jpg","Stimuli/Words/word44.jpg","d",0,"d",1,0.4449,NA,NA,NA,NA,NA,112,"Stimuli/Words/word51.jpg","Stimuli/Words/word52.jpg","d","third",2,0,0.0287,0.0297,"2021-10-07_17h15.48.216","01_word_task_central","2020.2.4","Win32",60,2560,1440,"",NA,NA,NA,NA,NA,NA,0,27,27,27,1
NA,NA,"Stimuli/Words/word34.jpg","Stimuli/Words/word33.jpg","d",0,"d",1,0.7086,NA,NA,NA,NA,NA,94,"Stimuli/Words/word13.jpg","Stimuli/Words/word14.jpg","d","third",2,0,0.0287,0.0297,"2021-10-07_17h15.48.216","01_word_task_central","2020.2.4","Win32",60,2560,1440,"",NA,NA,NA,NA,NA,NA,0,28,28,28,1
NA,NA,"Stimuli/Words/word15.jpg","Stimuli/Words/word15.jpg","s",0,"d",0,0.7373,NA,NA,NA,NA,NA,79,"Stimuli/Words/word38.jpg","Stimuli/Words/word37.jpg","d","second",2,0,0.0287,0.0297,"2021-10-07_17h15.48.216","01_word_task_central","2020.2.4","Win32",60,2560,1440,"",NA,NA,NA,NA,NA,NA,0,29,29,29,1
NA,NA,"Stimuli/Words/word50.jpg","Stimuli/Words/word49.jpg","d",0,"d",1,0.8996,NA,NA,NA,NA,NA,38,"Stimuli/Words/word15.jpg","Stimuli/Words/word15.jpg","s","third",2,0,0.0287,0.0297,"2021-10-07_17h15.48.216","01_word_task_central","2020.2.4","Win32",60,2560,1440,"",NA,NA,NA,NA,NA,NA,0,30,30,30,1
NA,NA,"Stimuli/Words/word21.jpg","Stimuli/Words/word22.jpg","d",0,"d",1,0.4871,NA,NA,NA,NA,NA,104,"Stimuli/Words/word43.jpg","Stimuli/Words/word44.jpg","d","third",2,0,0.0287,0.0297,"2021-10-07_17h15.48.216","01_word_task_central","2020.2.4","Win32",60,2560,1440,"",NA,NA,NA,NA,NA,NA,0,31,31,31,1
NA,NA,"","","",NA,"",NA,NA,NA,NA,NA,NA,NA,NA,"","","","",2,0,0.0287,0.0297,"2021-10-07_17h15.48.216","01_word_task_central","2020.2.4","Win32",60,2560,1440,"space",4.7691,NA,NA,NA,NA,NA,NA,NA,NA,NA,NA
