"X.Scale","Y.Scale","same_target","same_probe","xPosition","FW_resp.keys","FW_resp.corr","FW_resp.rt","face_loop_set1.thisRepN","face_loop_set1.thisTrialN","face_loop_set1.thisN","face_loop_set1.thisIndex","face_loop_set1.ran","targetID","imFile","imFile2","corr","trial_type","position","screen","x_scale","y_scale","date","expName","psychopyVersion","OS","frameRate","xResolution","yResolution","diff_target","diff_probe","face_loop_set2.thisRepN","face_loop_set2.thisTrialN","face_loop_set2.thisN","face_loop_set2.thisIndex","face_loop_set2.ran","face_loop_set3.thisRepN","face_loop_set3.thisTrialN","face_loop_set3.thisN","face_loop_set3.thisIndex","face_loop_set3.ran"
0.0555,0.0552,"Stimuli/Faces/CM0050_1100.jpg","Stimuli/Faces/CM0050_1100.jpg",0,"s",1,0.2459,0,0,0,30,1,30,"same_face","same_face","s","s",2,0,0.0555,0.0552,"2021-10-19_10h44.49.407","02_face_task_central","2020.2.4","MacIntel",60,1440,900,"","",NA,NA,NA,NA,NA,NA,NA,NA,NA,NA
NA,NA,"Stimuli/Faces/CM0040_1100.jpg","Stimuli/Faces/CM0040_1100.jpg",0,"d",0,0.2665,0,1,1,19,1,19,"same_face","same_face","s","s",2,0,0.0555,0.0552,"2021-10-19_10h44.49.407","02_face_task_central","2020.2.4","MacIntel",60,1440,900,"","",NA,NA,NA,NA,NA,NA,NA,NA,NA,NA
NA,NA,"Stimuli/Faces/CF0034_1100.jpg","Stimuli/Faces/CF0034_1100.jpg",0,"s",1,0.2428,0,2,2,23,1,23,"same_face","same_face","s","s",2,0,0.0555,0.0552,"2021-10-19_10h44.49.407","02_face_task_central","2020.2.4","MacIntel",60,1440,900,"","",NA,NA,NA,NA,NA,NA,NA,NA,NA,NA
NA,NA,"","",0,"d",1,0.322,0,3,3,14,1,14,"rand_face","rand_face","d","d",2,0,0.0555,0.0552,"2021-10-19_10h44.49.407","02_face_task_central","2020.2.4","MacIntel",60,1440,900,"Stimuli/Faces/CM0041_1100.jpg","Stimuli/Faces/CM0050_1100.jpg",NA,NA,NA,NA,NA,NA,NA,NA,NA,NA
NA,NA,"","",0,"s",0,0.2338,0,4,4,11,1,11,"rand_face","rand_face","d","d",2,0,0.0555,0.0552,"2021-10-19_10h44.49.407","02_face_task_central","2020.2.4","MacIntel",60,1440,900,"Stimuli/Faces/CM0040_1100.jpg","Stimuli/Faces/CM0040_1100.jpg",NA,NA,NA,NA,NA,NA,NA,NA,NA,NA
NA,NA,"Stimuli/Faces/CF0032_1100.jpg","Stimuli/Faces/CF0032_1100.jpg",0,"s",1,0.2052,0,5,5,21,1,21,"same_face","same_face","s","s",2,0,0.0555,0.0552,"2021-10-19_10h44.49.407","02_face_task_central","2020.2.4","MacIntel",60,1440,900,"","",NA,NA,NA,NA,NA,NA,NA,NA,NA,NA
NA,NA,"","",0,"s",0,0.2187,0,6,6,2,1,2,"rand_face","rand_face","d","d",2,0,0.0555,0.0552,"2021-10-19_10h44.49.407","02_face_task_central","2020.2.4","MacIntel",60,1440,900,"Stimuli/Faces/CF0034_1100.jpg","Stimuli/Faces/CF0034_1100.jpg",NA,NA,NA,NA,NA,NA,NA,NA,NA,NA
NA,NA,"","",0,"d",1,0.2876,0,7,7,15,1,15,"rand_face","rand_face","d","d",2,0,0.0555,0.0552,"2021-10-19_10h44.49.407","02_face_task_central","2020.2.4","MacIntel",60,1440,900,"Stimuli/Faces/CF0008_1100.jpg","Stimuli/Faces/CF0032_1100.jpg",NA,NA,NA,NA,NA,NA,NA,NA,NA,NA
NA,NA,"","",0,"d",1,0.3163,0,8,8,5,1,5,"rand_face","rand_face","d","d",2,0,0.0555,0.0552,"2021-10-19_10h44.49.407","02_face_task_central","2020.2.4","MacIntel",60,1440,900,"Stimuli/Faces/CM0039_1100.jpg","Stimuli/Faces/CF0016_1100.jpg",NA,NA,NA,NA,NA,NA,NA,NA,NA,NA
NA,NA,"","",0,"d",1,0.2994,0,9,9,3,1,3,"rand_face","rand_face","d","d",2,0,0.0555,0.0552,"2021-10-19_10h44.49.407","02_face_task_central","2020.2.4","MacIntel",60,1440,900,"Stimuli/Faces/CM0011_1100.jpg","Stimuli/Faces/CF0023_1100.jpg",NA,NA,NA,NA,NA,NA,NA,NA,NA,NA
NA,NA,"Stimuli/Faces/CF0016_1100.jpg","Stimuli/Faces/CF0016_1100.jpg",0,"s",1,0.2052,0,10,10,28,1,28,"same_face","same_face","s","s",2,0,0.0555,0.0552,"2021-10-19_10h44.49.407","02_face_task_central","2020.2.4","MacIntel",60,1440,900,"","",NA,NA,NA,NA,NA,NA,NA,NA,NA,NA
NA,NA,"Stimuli/Faces/CF0023_1100.jpg","Stimuli/Faces/CF0023_1100.jpg",0,"s",1,0.2505,0,11,11,24,1,24,"same_face","same_face","s","s",2,0,0.0555,0.0552,"2021-10-19_10h44.49.407","02_face_task_central","2020.2.4","MacIntel",60,1440,900,"","",NA,NA,NA,NA,NA,NA,NA,NA,NA,NA
NA,NA,"Stimuli/Faces/CM0028_1100.jpg","Stimuli/Faces/CM0028_1100.jpg",0,"s",1,0.2363,0,12,12,18,1,18,"same_face","same_face","s","s",2,0,0.0555,0.0552,"2021-10-19_10h44.49.407","02_face_task_central","2020.2.4","MacIntel",60,1440,900,"","",NA,NA,NA,NA,NA,NA,NA,NA,NA,NA
NA,NA,"","",0,"s",0,0.2415,0,13,13,4,1,4,"rand_face","rand_face","d","d",2,0,0.0555,0.0552,"2021-10-19_10h44.49.407","02_face_task_central","2020.2.4","MacIntel",60,1440,900,"Stimuli/Faces/CF0026_1110.jpg","Stimuli/Faces/CM0028_1100.jpg",NA,NA,NA,NA,NA,NA,NA,NA,NA,NA
NA,NA,"Stimuli/Faces/CF0012_3320.jpg","Stimuli/Faces/CF0012_3320.jpg",0,"s",1,0.3463,0,14,14,22,1,22,"same_face","same_face","s","s",2,0,0.0555,0.0552,"2021-10-19_10h44.49.407","02_face_task_central","2020.2.4","MacIntel",60,1440,900,"","",NA,NA,NA,NA,NA,NA,NA,NA,NA,NA
NA,NA,"Stimuli/Faces/CM0025_1100.jpg","Stimuli/Faces/CM0025_1100.jpg",0,"s",1,0.2919,0,15,15,26,1,26,"same_face","same_face","s","s",2,0,0.0555,0.0552,"2021-10-19_10h44.49.407","02_face_task_central","2020.2.4","MacIntel",60,1440,900,"","",NA,NA,NA,NA,NA,NA,NA,NA,NA,NA
NA,NA,"","",0,"d",1,0.3248,0,16,16,12,1,12,"rand_face","rand_face","d","d",2,0,0.0555,0.0552,"2021-10-19_10h44.49.407","02_face_task_central","2020.2.4","MacIntel",60,1440,900,"Stimuli/Faces/CM0009_1100.jpg","Stimuli/Faces/CF0012_3320.jpg",NA,NA,NA,NA,NA,NA,NA,NA,NA,NA
NA,NA,"","",0,"d",1,0.2994,0,17,17,0,1,0,"rand_face","rand_face","d","d",2,0,0.0555,0.0552,"2021-10-19_10h44.49.407","02_face_task_central","2020.2.4","MacIntel",60,1440,900,"Stimuli/Faces/CM0030_1100.jpg","Stimuli/Faces/CM0025_1100.jpg",NA,NA,NA,NA,NA,NA,NA,NA,NA,NA
NA,NA,"","",0,"d",1,0.3311,0,18,18,8,1,8,"rand_face","rand_face","d","d",2,0,0.0555,0.0552,"2021-10-19_10h44.49.407","02_face_task_central","2020.2.4","MacIntel",60,1440,900,"Stimuli/Faces/CF0012_3320.jpg","Stimuli/Faces/CM0024_3100.jpg",NA,NA,NA,NA,NA,NA,NA,NA,NA,NA
NA,NA,"Stimuli/Faces/CM0024_3100.jpg","Stimuli/Faces/CM0024_3100.jpg",0,"s",1,0.2683,0,19,19,27,1,27,"same_face","same_face","s","s",2,0,0.0555,0.0552,"2021-10-19_10h44.49.407","02_face_task_central","2020.2.4","MacIntel",60,1440,900,"","",NA,NA,NA,NA,NA,NA,NA,NA,NA,NA
NA,NA,"Stimuli/Faces/CM0010_1100.jpg","Stimuli/Faces/CM0010_1100.jpg",0,"s",1,0.3239,0,20,20,17,1,17,"same_face","same_face","s","s",2,0,0.0555,0.0552,"2021-10-19_10h44.49.407","02_face_task_central","2020.2.4","MacIntel",60,1440,900,"","",NA,NA,NA,NA,NA,NA,NA,NA,NA,NA
NA,NA,"","",0,"s",0,0.5244,0,21,21,9,1,9,"rand_face","rand_face","d","d",2,0,0.0555,0.0552,"2021-10-19_10h44.49.407","02_face_task_central","2020.2.4","MacIntel",60,1440,900,"Stimuli/Faces/CF0022_1100.jpg","Stimuli/Faces/CM0010_1100.jpg",NA,NA,NA,NA,NA,NA,NA,NA,NA,NA
NA,NA,"Stimuli/Faces/CF0020_1100.jpg","Stimuli/Faces/CF0020_1100.jpg",0,"s",1,0.4509,0,22,22,25,1,25,"same_face","same_face","s","s",2,0,0.0555,0.0552,"2021-10-19_10h44.49.407","02_face_task_central","2020.2.4","MacIntel",60,1440,900,"","",NA,NA,NA,NA,NA,NA,NA,NA,NA,NA
NA,NA,"","",0,"d",1,0.3077,0,23,23,7,1,7,"rand_face","rand_face","d","d",2,0,0.0555,0.0552,"2021-10-19_10h44.49.407","02_face_task_central","2020.2.4","MacIntel",60,1440,900,"Stimuli/Faces/CF0050_1100.jpg","Stimuli/Faces/CF0020_1100.jpg",NA,NA,NA,NA,NA,NA,NA,NA,NA,NA
NA,NA,"Stimuli/Faces/CF0058_1100.jpg","Stimuli/Faces/CF0058_1100.jpg",0,"s",1,0.3685,0,24,24,16,1,16,"same_face","same_face","s","s",2,0,0.0555,0.0552,"2021-10-19_10h44.49.407","02_face_task_central","2020.2.4","MacIntel",60,1440,900,"","",NA,NA,NA,NA,NA,NA,NA,NA,NA,NA
NA,NA,"","",0,"d",1,0.2912,0,25,25,6,1,6,"rand_face","rand_face","d","d",2,0,0.0555,0.0552,"2021-10-19_10h44.49.407","02_face_task_central","2020.2.4","MacIntel",60,1440,900,"Stimuli/Faces/CM0007_1100.jpg","Stimuli/Faces/CF0058_1100.jpg",NA,NA,NA,NA,NA,NA,NA,NA,NA,NA
NA,NA,"","",0,"d",1,0.3191,0,26,26,13,1,13,"rand_face","rand_face","d","d",2,0,0.0555,0.0552,"2021-10-19_10h44.49.407","02_face_task_central","2020.2.4","MacIntel",60,1440,900,"Stimuli/Faces/CF0057_1100.jpg","Stimuli/Faces/CM0031_1100.jpg",NA,NA,NA,NA,NA,NA,NA,NA,NA,NA
NA,NA,"","",0,"d",1,0.4874,0,27,27,1,1,1,"rand_face","rand_face","d","d",2,0,0.0555,0.0552,"2021-10-19_10h44.49.407","02_face_task_central","2020.2.4","MacIntel",60,1440,900,"Stimuli/Faces/CM0050_1100.jpg","Stimuli/Faces/CM0046_1100.jpg",NA,NA,NA,NA,NA,NA,NA,NA,NA,NA
NA,NA,"Stimuli/Faces/CM0031_1100.jpg","Stimuli/Faces/CM0031_1100.jpg",0,"d",0,0.3219,0,28,28,31,1,31,"same_face","same_face","s","s",2,0,0.0555,0.0552,"2021-10-19_10h44.49.407","02_face_task_central","2020.2.4","MacIntel",60,1440,900,"","",NA,NA,NA,NA,NA,NA,NA,NA,NA,NA
NA,NA,"Stimuli/Faces/CM0046_1100.jpg","Stimuli/Faces/CM0046_1100.jpg",0,"d",0,0.3031,0,29,29,29,1,29,"same_face","same_face","s","s",2,0,0.0555,0.0552,"2021-10-19_10h44.49.407","02_face_task_central","2020.2.4","MacIntel",60,1440,900,"","",NA,NA,NA,NA,NA,NA,NA,NA,NA,NA
NA,NA,"Stimuli/Faces/CM0005_1100.jpg","Stimuli/Faces/CM0005_1100.jpg",0,"s",1,0.4349,0,30,30,20,1,20,"same_face","same_face","s","s",2,0,0.0555,0.0552,"2021-10-19_10h44.49.407","02_face_task_central","2020.2.4","MacIntel",60,1440,900,"","",NA,NA,NA,NA,NA,NA,NA,NA,NA,NA
NA,NA,"","",0,"d",1,0.5505,0,31,31,10,1,10,"rand_face","rand_face","d","d",2,0,0.0555,0.0552,"2021-10-19_10h44.49.407","02_face_task_central","2020.2.4","MacIntel",60,1440,900,"Stimuli/Faces/CF0016_1100.jpg","Stimuli/Faces/CM0005_1100.jpg",NA,NA,NA,NA,NA,NA,NA,NA,NA,NA
NA,NA,"Stimuli/Faces/CM0030_1100.jpg","Stimuli/Faces/CM0030_1100.jpg",0,"s",1,0.3502,NA,NA,NA,NA,NA,62,"same_face","same_face","s","s",2,0,0.0555,0.0552,"2021-10-19_10h44.49.407","02_face_task_central","2020.2.4","MacIntel",60,1440,900,"","",0,0,0,26,1,NA,NA,NA,NA,NA
NA,NA,"","",0,"d",1,0.3167,NA,NA,NA,NA,NA,45,"rand_face","rand_face","d","d",2,0,0.0555,0.0552,"2021-10-19_10h44.49.407","02_face_task_central","2020.2.4","MacIntel",60,1440,900,"Stimuli/Faces/CF0040_1110.jpg","Stimuli/Faces/CM0030_1100.jpg",0,1,1,9,1,NA,NA,NA,NA,NA
NA,NA,"Stimuli/Faces/CF0052_1100.jpg","Stimuli/Faces/CF0052_1100.jpg",0,"s",1,0.2677,NA,NA,NA,NA,NA,59,"same_face","same_face","s","s",2,0,0.0555,0.0552,"2021-10-19_10h44.49.407","02_face_task_central","2020.2.4","MacIntel",60,1440,900,"","",0,2,2,23,1,NA,NA,NA,NA,NA
NA,NA,"Stimuli/Faces/CF0007_1100.jpg","Stimuli/Faces/CF0007_1100.jpg",0,"s",1,0.4153,NA,NA,NA,NA,NA,56,"same_face","same_face","s","s",2,0,0.0555,0.0552,"2021-10-19_10h44.49.407","02_face_task_central","2020.2.4","MacIntel",60,1440,900,"","",0,3,3,20,1,NA,NA,NA,NA,NA
NA,NA,"","",0,"d",1,0.3509,NA,NA,NA,NA,NA,37,"rand_face","rand_face","d","d",2,0,0.0555,0.0552,"2021-10-19_10h44.49.407","02_face_task_central","2020.2.4","MacIntel",60,1440,900,"Stimuli/Faces/CM0048_1100.jpg","Stimuli/Faces/CF0052_1100.jpg",0,4,4,1,1,NA,NA,NA,NA,NA
NA,NA,"Stimuli/Faces/CM0044_1100.jpg","Stimuli/Faces/CM0044_1100.jpg",0,"s",1,0.3453,NA,NA,NA,NA,NA,65,"same_face","same_face","s","s",2,0,0.0555,0.0552,"2021-10-19_10h44.49.407","02_face_task_central","2020.2.4","MacIntel",60,1440,900,"","",0,5,5,29,1,NA,NA,NA,NA,NA
NA,NA,"","",0,"d",1,0.3366,NA,NA,NA,NA,NA,43,"rand_face","rand_face","d","d",2,0,0.0555,0.0552,"2021-10-19_10h44.49.407","02_face_task_central","2020.2.4","MacIntel",60,1440,900,"Stimuli/Faces/CF0032_1100.jpg","Stimuli/Faces/CF0007_1100.jpg",0,6,6,7,1,NA,NA,NA,NA,NA
NA,NA,"","",0,"s",0,0.4013,NA,NA,NA,NA,NA,42,"rand_face","rand_face","d","d",2,0,0.0555,0.0552,"2021-10-19_10h44.49.407","02_face_task_central","2020.2.4","MacIntel",60,1440,900,"Stimuli/Faces/CF0007_1100.jpg","Stimuli/Faces/CM0044_1100.jpg",0,7,7,6,1,NA,NA,NA,NA,NA
NA,NA,"Stimuli/Faces/CF0050_1100.jpg","Stimuli/Faces/CF0050_1100.jpg",0,"s",1,0.2827,NA,NA,NA,NA,NA,60,"same_face","same_face","s","s",2,0,0.0555,0.0552,"2021-10-19_10h44.49.407","02_face_task_central","2020.2.4","MacIntel",60,1440,900,"","",0,8,8,24,1,NA,NA,NA,NA,NA
NA,NA,"","",0,"s",0,0.3498,NA,NA,NA,NA,NA,47,"rand_face","rand_face","d","d",2,0,0.0555,0.0552,"2021-10-19_10h44.49.407","02_face_task_central","2020.2.4","MacIntel",60,1440,900,"Stimuli/Faces/CF0009_1100.jpg","Stimuli/Faces/CF0050_1100.jpg",0,9,9,11,1,NA,NA,NA,NA,NA
NA,NA,"","",0,"d",1,0.3398,NA,NA,NA,NA,NA,48,"rand_face","rand_face","d","d",2,0,0.0555,0.0552,"2021-10-19_10h44.49.407","02_face_task_central","2020.2.4","MacIntel",60,1440,900,"Stimuli/Faces/CF0010_1100.jpg","Stimuli/Faces/CM0011_1100.jpg",0,10,10,12,1,NA,NA,NA,NA,NA
NA,NA,"Stimuli/Faces/CM0011_1100.jpg","Stimuli/Faces/CM0011_1100.jpg",0,"s",1,0.291,NA,NA,NA,NA,NA,64,"same_face","same_face","s","s",2,0,0.0555,0.0552,"2021-10-19_10h44.49.407","02_face_task_central","2020.2.4","MacIntel",60,1440,900,"","",0,11,11,28,1,NA,NA,NA,NA,NA
NA,NA,"","",0,"d",1,0.3515,NA,NA,NA,NA,NA,51,"rand_face","rand_face","d","d",2,0,0.0555,0.0552,"2021-10-19_10h44.49.407","02_face_task_central","2020.2.4","MacIntel",60,1440,900,"Stimuli/Faces/CF0052_1100.jpg","Stimuli/Faces/CF0040_1110.jpg",0,12,12,15,1,NA,NA,NA,NA,NA
NA,NA,"","",0,"d",1,0.3236,NA,NA,NA,NA,NA,36,"rand_face","rand_face","d","d",2,0,0.0555,0.0552,"2021-10-19_10h44.49.407","02_face_task_central","2020.2.4","MacIntel",60,1440,900,"Stimuli/Faces/CM0024_3100.jpg","Stimuli/Faces/CF0021_1100.jpg",0,13,13,0,1,NA,NA,NA,NA,NA
NA,NA,"","",0,"d",1,0.401,NA,NA,NA,NA,NA,49,"rand_face","rand_face","d","d",2,0,0.0555,0.0552,"2021-10-19_10h44.49.407","02_face_task_central","2020.2.4","MacIntel",60,1440,900,"Stimuli/Faces/CF0020_1100.jpg","Stimuli/Faces/CM0039_3300.jpg",0,14,14,13,1,NA,NA,NA,NA,NA
NA,NA,"Stimuli/Faces/CF0040_1110.jpg","Stimuli/Faces/CF0040_1110.jpg",0,"s",1,0.3844,NA,NA,NA,NA,NA,57,"same_face","same_face","s","s",2,0,0.0555,0.0552,"2021-10-19_10h44.49.407","02_face_task_central","2020.2.4","MacIntel",60,1440,900,"","",0,15,15,21,1,NA,NA,NA,NA,NA
NA,NA,"Stimuli/Faces/CF0021_1100.jpg","Stimuli/Faces/CF0021_1100.jpg",0,"s",1,0.2776,NA,NA,NA,NA,NA,61,"same_face","same_face","s","s",2,0,0.0555,0.0552,"2021-10-19_10h44.49.407","02_face_task_central","2020.2.4","MacIntel",60,1440,900,"","",0,16,16,25,1,NA,NA,NA,NA,NA
NA,NA,"Stimuli/Faces/CM0039_3300.jpg","Stimuli/Faces/CM0039_3300.jpg",0,"d",0,0.3189,NA,NA,NA,NA,NA,67,"same_face","same_face","s","s",2,0,0.0555,0.0552,"2021-10-19_10h44.49.407","02_face_task_central","2020.2.4","MacIntel",60,1440,900,"","",0,17,17,31,1,NA,NA,NA,NA,NA
NA,NA,"","",0,"d",1,0.3707,NA,NA,NA,NA,NA,44,"rand_face","rand_face","d","d",2,0,0.0555,0.0552,"2021-10-19_10h44.49.407","02_face_task_central","2020.2.4","MacIntel",60,1440,900,"Stimuli/Faces/CF0033_1100.jpg","Stimuli/Faces/CM0015_1100.jpg",0,18,18,8,1,NA,NA,NA,NA,NA
NA,NA,"Stimuli/Faces/CM0015_1100.jpg","Stimuli/Faces/CM0015_1100.jpg",0,"s",1,0.4344,NA,NA,NA,NA,NA,52,"same_face","same_face","s","s",2,0,0.0555,0.0552,"2021-10-19_10h44.49.407","02_face_task_central","2020.2.4","MacIntel",60,1440,900,"","",0,19,19,16,1,NA,NA,NA,NA,NA
NA,NA,"Stimuli/Faces/CF0033_1100.jpg","Stimuli/Faces/CF0033_1100.jpg",0,"s",1,0.437,NA,NA,NA,NA,NA,54,"same_face","same_face","s","s",2,0,0.0555,0.0552,"2021-10-19_10h44.49.407","02_face_task_central","2020.2.4","MacIntel",60,1440,900,"","",0,20,20,18,1,NA,NA,NA,NA,NA
NA,NA,"","",0,"d",1,0.3324,NA,NA,NA,NA,NA,38,"rand_face","rand_face","d","d",2,0,0.0555,0.0552,"2021-10-19_10h44.49.407","02_face_task_central","2020.2.4","MacIntel",60,1440,900,"Stimuli/Faces/CM0046_1100.jpg","Stimuli/Faces/CF0033_1100.jpg",0,21,21,2,1,NA,NA,NA,NA,NA
NA,NA,"Stimuli/Faces/CM0029_1100.jpg","Stimuli/Faces/CM0029_1100.jpg",0,"s",1,0.2842,NA,NA,NA,NA,NA,53,"same_face","same_face","s","s",2,0,0.0555,0.0552,"2021-10-19_10h44.49.407","02_face_task_central","2020.2.4","MacIntel",60,1440,900,"","",0,22,22,17,1,NA,NA,NA,NA,NA
NA,NA,"","",0,"d",1,0.3144,NA,NA,NA,NA,NA,40,"rand_face","rand_face","d","d",2,0,0.0555,0.0552,"2021-10-19_10h44.49.407","02_face_task_central","2020.2.4","MacIntel",60,1440,900,"Stimuli/Faces/CF0021_1100.jpg","Stimuli/Faces/CM0029_1100.jpg",0,23,23,4,1,NA,NA,NA,NA,NA
NA,NA,"","",0,"d",1,0.3244,NA,NA,NA,NA,NA,41,"rand_face","rand_face","d","d",2,0,0.0555,0.0552,"2021-10-19_10h44.49.407","02_face_task_central","2020.2.4","MacIntel",60,1440,900,"Stimuli/Faces/CF0031_1100.jpg","Stimuli/Faces/CF0026_1110.jpg",0,24,24,5,1,NA,NA,NA,NA,NA
NA,NA,"","",0,"d",1,0.3321,NA,NA,NA,NA,NA,50,"rand_face","rand_face","d","d",2,0,0.0555,0.0552,"2021-10-19_10h44.49.407","02_face_task_central","2020.2.4","MacIntel",60,1440,900,"Stimuli/Faces/CM0029_2200.jpg","Stimuli/Faces/CF0046_1100.jpg",0,25,25,14,1,NA,NA,NA,NA,NA
NA,NA,"Stimuli/Faces/CF0026_1110.jpg","Stimuli/Faces/CF0026_1110.jpg",0,"s",1,0.2523,NA,NA,NA,NA,NA,55,"same_face","same_face","s","s",2,0,0.0555,0.0552,"2021-10-19_10h44.49.407","02_face_task_central","2020.2.4","MacIntel",60,1440,900,"","",0,26,26,19,1,NA,NA,NA,NA,NA
NA,NA,"Stimuli/Faces/CF0046_1100.jpg","Stimuli/Faces/CF0046_1100.jpg",0,"s",1,0.2719,NA,NA,NA,NA,NA,63,"same_face","same_face","s","s",2,0,0.0555,0.0552,"2021-10-19_10h44.49.407","02_face_task_central","2020.2.4","MacIntel",60,1440,900,"","",0,27,27,27,1,NA,NA,NA,NA,NA
NA,NA,"","",0,"d",1,0.307,NA,NA,NA,NA,NA,39,"rand_face","rand_face","d","d",2,0,0.0555,0.0552,"2021-10-19_10h44.49.407","02_face_task_central","2020.2.4","MacIntel",60,1440,900,"Stimuli/Faces/CF0055_1100.jpg","Stimuli/Faces/CM0047_1100.jpg",0,28,28,3,1,NA,NA,NA,NA,NA
NA,NA,"","",0,"d",1,0.3325,NA,NA,NA,NA,NA,46,"rand_face","rand_face","d","d",2,0,0.0555,0.0552,"2021-10-19_10h44.49.407","02_face_task_central","2020.2.4","MacIntel",60,1440,900,"Stimuli/Faces/CM0031_1100.jpg","Stimuli/Faces/CF0057_1100.jpg",0,29,29,10,1,NA,NA,NA,NA,NA
NA,NA,"Stimuli/Faces/CM0047_1100.jpg","Stimuli/Faces/CM0047_1100.jpg",0,"s",1,0.3004,NA,NA,NA,NA,NA,58,"same_face","same_face","s","s",2,0,0.0555,0.0552,"2021-10-19_10h44.49.407","02_face_task_central","2020.2.4","MacIntel",60,1440,900,"","",0,30,30,22,1,NA,NA,NA,NA,NA
NA,NA,"Stimuli/Faces/CF0057_1100.jpg","Stimuli/Faces/CF0057_1100.jpg",0,"s",1,0.2827,NA,NA,NA,NA,NA,66,"same_face","same_face","s","s",2,0,0.0555,0.0552,"2021-10-19_10h44.49.407","02_face_task_central","2020.2.4","MacIntel",60,1440,900,"","",0,31,31,30,1,NA,NA,NA,NA,NA
NA,NA,"Stimuli/Faces/CF0031_1100.jpg","Stimuli/Faces/CF0031_1100.jpg",0,"s",1,0.2044,NA,NA,NA,NA,NA,90,"same_face","same_face","s","s",2,0,0.0555,0.0552,"2021-10-19_10h44.49.407","02_face_task_central","2020.2.4","MacIntel",60,1440,900,"","",NA,NA,NA,NA,NA,0,0,0,18,1
NA,NA,"","",0,"d",1,0.2541,NA,NA,NA,NA,NA,75,"rand_face","rand_face","d","d",2,0,0.0555,0.0552,"2021-10-19_10h44.49.407","02_face_task_central","2020.2.4","MacIntel",60,1440,900,"Stimuli/Faces/CM0010_1100.jpg","Stimuli/Faces/CF0031_1100.jpg",NA,NA,NA,NA,NA,0,1,1,3,1
NA,NA,"","",0,"d",1,0.3082,NA,NA,NA,NA,NA,79,"rand_face","rand_face","d","d",2,0,0.0555,0.0552,"2021-10-19_10h44.49.407","02_face_task_central","2020.2.4","MacIntel",60,1440,900,"Stimuli/Faces/CM0015_1100.jpg","Stimuli/Faces/CF0010_1100.jpg",NA,NA,NA,NA,NA,0,2,2,7,1
NA,NA,"","",0,"d",1,0.2808,NA,NA,NA,NA,NA,78,"rand_face","rand_face","d","d",2,0,0.0555,0.0552,"2021-10-19_10h44.49.407","02_face_task_central","2020.2.4","MacIntel",60,1440,900,"Stimuli/Faces/CM0028_1100.jpg","Stimuli/Faces/CF0055_1100.jpg",NA,NA,NA,NA,NA,0,3,3,6,1
NA,NA,"","",0,"d",1,0.2674,NA,NA,NA,NA,NA,74,"rand_face","rand_face","d","d",2,0,0.0555,0.0552,"2021-10-19_10h44.49.407","02_face_task_central","2020.2.4","MacIntel",60,1440,900,"Stimuli/Faces/CM0029_1100.jpg","Stimuli/Faces/CF0013_1110.jpg",NA,NA,NA,NA,NA,0,4,4,2,1
NA,NA,"Stimuli/Faces/CF0010_1100.jpg","Stimuli/Faces/CF0010_1100.jpg",0,"s",1,0.1876,NA,NA,NA,NA,NA,102,"same_face","same_face","s","s",2,0,0.0555,0.0552,"2021-10-19_10h44.49.407","02_face_task_central","2020.2.4","MacIntel",60,1440,900,"","",NA,NA,NA,NA,NA,0,5,5,30,1
NA,NA,"Stimuli/Faces/CF0055_1100.jpg","Stimuli/Faces/CF0055_1100.jpg",0,"d",0,0.3542,NA,NA,NA,NA,NA,99,"same_face","same_face","s","s",2,0,0.0555,0.0552,"2021-10-19_10h44.49.407","02_face_task_central","2020.2.4","MacIntel",60,1440,900,"","",NA,NA,NA,NA,NA,0,6,6,27,1
NA,NA,"","",0,"s",0,0.2341,NA,NA,NA,NA,NA,82,"rand_face","rand_face","d","d",2,0,0.0555,0.0552,"2021-10-19_10h44.49.407","02_face_task_central","2020.2.4","MacIntel",60,1440,900,"Stimuli/Faces/CM0025_1100.jpg","Stimuli/Faces/CM0045_1100.jpg",NA,NA,NA,NA,NA,0,7,7,10,1
NA,NA,"","",0,"d",1,0.3393,NA,NA,NA,NA,NA,87,"rand_face","rand_face","d","d",2,0,0.0555,0.0552,"2021-10-19_10h44.49.407","02_face_task_central","2020.2.4","MacIntel",60,1440,900,"Stimuli/Faces/CF0046_1100.jpg","Stimuli/Faces/CM0009_1100.jpg",NA,NA,NA,NA,NA,0,8,8,15,1
NA,NA,"","",0,"d",1,0.3002,NA,NA,NA,NA,NA,72,"rand_face","rand_face","d","d",2,0,0.0555,0.0552,"2021-10-19_10h44.49.407","02_face_task_central","2020.2.4","MacIntel",60,1440,900,"Stimuli/Faces/CF0035_1100.jpg","Stimuli/Faces/CM0041_1100.jpg",NA,NA,NA,NA,NA,0,9,9,0,1
NA,NA,"","",0,"d",1,0.2625,NA,NA,NA,NA,NA,81,"rand_face","rand_face","d","d",2,0,0.0555,0.0552,"2021-10-19_10h44.49.407","02_face_task_central","2020.2.4","MacIntel",60,1440,900,"Stimuli/Faces/CF0013_1110.jpg","Stimuli/Faces/CM0039_1100.jpg",NA,NA,NA,NA,NA,0,10,10,9,1
NA,NA,"Stimuli/Faces/CF0013_1110.jpg","Stimuli/Faces/CF0013_1110.jpg",0,"d",0,0.2411,NA,NA,NA,NA,NA,95,"same_face","same_face","s","s",2,0,0.0555,0.0552,"2021-10-19_10h44.49.407","02_face_task_central","2020.2.4","MacIntel",60,1440,900,"","",NA,NA,NA,NA,NA,0,11,11,23,1
NA,NA,"Stimuli/Faces/CM0045_1100.jpg","Stimuli/Faces/CM0045_1100.jpg",0,"s",1,0.2173,NA,NA,NA,NA,NA,101,"same_face","same_face","s","s",2,0,0.0555,0.0552,"2021-10-19_10h44.49.407","02_face_task_central","2020.2.4","MacIntel",60,1440,900,"","",NA,NA,NA,NA,NA,0,12,12,29,1
NA,NA,"","",0,"d",1,0.3354,NA,NA,NA,NA,NA,76,"rand_face","rand_face","d","d",2,0,0.0555,0.0552,"2021-10-19_10h44.49.407","02_face_task_central","2020.2.4","MacIntel",60,1440,900,"Stimuli/Faces/CM0039_3300.jpg","Stimuli/Faces/CF0009_1100.jpg",NA,NA,NA,NA,NA,0,13,13,4,1
NA,NA,"Stimuli/Faces/CM0009_1100.jpg","Stimuli/Faces/CM0009_1100.jpg",0,"s",1,0.4243,NA,NA,NA,NA,NA,89,"same_face","same_face","s","s",2,0,0.0555,0.0552,"2021-10-19_10h44.49.407","02_face_task_central","2020.2.4","MacIntel",60,1440,900,"","",NA,NA,NA,NA,NA,0,14,14,17,1
NA,NA,"Stimuli/Faces/CM0041_1100.jpg","Stimuli/Faces/CM0041_1100.jpg",0,"s",1,0.2751,NA,NA,NA,NA,NA,97,"same_face","same_face","s","s",2,0,0.0555,0.0552,"2021-10-19_10h44.49.407","02_face_task_central","2020.2.4","MacIntel",60,1440,900,"","",NA,NA,NA,NA,NA,0,15,15,25,1
NA,NA,"","",0,"d",1,0.3007,NA,NA,NA,NA,NA,73,"rand_face","rand_face","d","d",2,0,0.0555,0.0552,"2021-10-19_10h44.49.407","02_face_task_central","2020.2.4","MacIntel",60,1440,900,"Stimuli/Faces/CM0047_1100.jpg","Stimuli/Faces/CM0048_1100.jpg",NA,NA,NA,NA,NA,0,16,16,1,1
NA,NA,"Stimuli/Faces/CM0039_1100.jpg","Stimuli/Faces/CM0039_1100.jpg",0,"s",1,0.242,NA,NA,NA,NA,NA,88,"same_face","same_face","s","s",2,0,0.0555,0.0552,"2021-10-19_10h44.49.407","02_face_task_central","2020.2.4","MacIntel",60,1440,900,"","",NA,NA,NA,NA,NA,0,17,17,16,1
NA,NA,"Stimuli/Faces/CF0009_1100.jpg","Stimuli/Faces/CF0009_1100.jpg",0,"s",1,0.2965,NA,NA,NA,NA,NA,96,"same_face","same_face","s","s",2,0,0.0555,0.0552,"2021-10-19_10h44.49.407","02_face_task_central","2020.2.4","MacIntel",60,1440,900,"","",NA,NA,NA,NA,NA,0,18,18,24,1
NA,NA,"Stimuli/Faces/CM0048_1100.jpg","Stimuli/Faces/CM0048_1100.jpg",0,"s",1,0.2513,NA,NA,NA,NA,NA,98,"same_face","same_face","s","s",2,0,0.0555,0.0552,"2021-10-19_10h44.49.407","02_face_task_central","2020.2.4","MacIntel",60,1440,900,"","",NA,NA,NA,NA,NA,0,19,19,26,1
NA,NA,"Stimuli/Faces/CM0007_1100.jpg","Stimuli/Faces/CM0007_1100.jpg",0,"s",1,0.2543,NA,NA,NA,NA,NA,93,"same_face","same_face","s","s",2,0,0.0555,0.0552,"2021-10-19_10h44.49.407","02_face_task_central","2020.2.4","MacIntel",60,1440,900,"","",NA,NA,NA,NA,NA,0,20,20,21,1
NA,NA,"","",0,"d",1,0.3506,NA,NA,NA,NA,NA,80,"rand_face","rand_face","d","d",2,0,0.0555,0.0552,"2021-10-19_10h44.49.407","02_face_task_central","2020.2.4","MacIntel",60,1440,900,"Stimuli/Faces/CM0045_1100.jpg","Stimuli/Faces/CM0007_1100.jpg",NA,NA,NA,NA,NA,0,21,21,8,1
NA,NA,"Stimuli/Faces/CF0035_1100.jpg","Stimuli/Faces/CF0035_1100.jpg",0,"s",1,0.383,NA,NA,NA,NA,NA,91,"same_face","same_face","s","s",2,0,0.0555,0.0552,"2021-10-19_10h44.49.407","02_face_task_central","2020.2.4","MacIntel",60,1440,900,"","",NA,NA,NA,NA,NA,0,22,22,19,1
NA,NA,"Stimuli/Faces/CM0008_1100.jpg","Stimuli/Faces/CM0008_1100.jpg",0,"s",1,0.3036,NA,NA,NA,NA,NA,92,"same_face","same_face","s","s",2,0,0.0555,0.0552,"2021-10-19_10h44.49.407","02_face_task_central","2020.2.4","MacIntel",60,1440,900,"","",NA,NA,NA,NA,NA,0,23,23,20,1
NA,NA,"","",0,"d",1,0.282,NA,NA,NA,NA,NA,86,"rand_face","rand_face","d","d",2,0,0.0555,0.0552,"2021-10-19_10h44.49.407","02_face_task_central","2020.2.4","MacIntel",60,1440,900,"Stimuli/Faces/CM0008_1100.jpg","Stimuli/Faces/CF0035_1100.jpg",NA,NA,NA,NA,NA,0,24,24,14,1
NA,NA,"","",0,"d",1,0.3476,NA,NA,NA,NA,NA,85,"rand_face","rand_face","d","d",2,0,0.0555,0.0552,"2021-10-19_10h44.49.407","02_face_task_central","2020.2.4","MacIntel",60,1440,900,"Stimuli/Faces/CF0058_1100.jpg","Stimuli/Faces/CM0008_1100.jpg",NA,NA,NA,NA,NA,0,25,25,13,1
NA,NA,"","",0,"d",1,0.3419,NA,NA,NA,NA,NA,84,"rand_face","rand_face","d","d",2,0,0.0555,0.0552,"2021-10-19_10h44.49.407","02_face_task_central","2020.2.4","MacIntel",60,1440,900,"Stimuli/Faces/CM0044_1100.jpg","Stimuli/Faces/CM0029_2200.jpg",NA,NA,NA,NA,NA,0,26,26,12,1
NA,NA,"","",0,"d",1,0.3517,NA,NA,NA,NA,NA,77,"rand_face","rand_face","d","d",2,0,0.0555,0.0552,"2021-10-19_10h44.49.407","02_face_task_central","2020.2.4","MacIntel",60,1440,900,"Stimuli/Faces/CF0023_1100.jpg","Stimuli/Faces/CF0022_1100.jpg",NA,NA,NA,NA,NA,0,27,27,5,1
NA,NA,"","",0,"d",1,0.334,NA,NA,NA,NA,NA,83,"rand_face","rand_face","d","d",2,0,0.0555,0.0552,"2021-10-19_10h44.49.407","02_face_task_central","2020.2.4","MacIntel",60,1440,900,"Stimuli/Faces/CM0005_1100.jpg","Stimuli/Faces/CF0008_1100.jpg",NA,NA,NA,NA,NA,0,28,28,11,1
NA,NA,"Stimuli/Faces/CM0029_2200.jpg","Stimuli/Faces/CM0029_2200.jpg",0,"s",1,0.2336,NA,NA,NA,NA,NA,100,"same_face","same_face","s","s",2,0,0.0555,0.0552,"2021-10-19_10h44.49.407","02_face_task_central","2020.2.4","MacIntel",60,1440,900,"","",NA,NA,NA,NA,NA,0,29,29,28,1
NA,NA,"Stimuli/Faces/CF0022_1100.jpg","Stimuli/Faces/CF0022_1100.jpg",0,"s",1,0.2518,NA,NA,NA,NA,NA,94,"same_face","same_face","s","s",2,0,0.0555,0.0552,"2021-10-19_10h44.49.407","02_face_task_central","2020.2.4","MacIntel",60,1440,900,"","",NA,NA,NA,NA,NA,0,30,30,22,1
NA,NA,"Stimuli/Faces/CF0008_1100.jpg","Stimuli/Faces/CF0008_1100.jpg",0,"s",1,0.2686,NA,NA,NA,NA,NA,103,"same_face","same_face","s","s",2,0,0.0555,0.0552,"2021-10-19_10h44.49.407","02_face_task_central","2020.2.4","MacIntel",60,1440,900,"","",NA,NA,NA,NA,NA,0,31,31,31,1
