"X.Scale","Y.Scale","image1","image2","corr_acc","xPosition","FW_resp.keys","FW_resp.corr","FW_resp.rt","word_loop_set1.thisRepN","word_loop_set1.thisTrialN","word_loop_set1.thisN","word_loop_set1.thisIndex","word_loop_set1.ran","trialID","imFile","imFile2","corr","diff","position","screen","x_scale","y_scale","date","expName","psychopyVersion","OS","frameRate","xResolution","yResolution","key_resp_3.keys","key_resp_3.rt","word_loop_set2.thisRepN","word_loop_set2.thisTrialN","word_loop_set2.thisN","word_loop_set2.thisIndex","word_loop_set2.ran","word_loop_set3.thisRepN","word_loop_set3.thisTrialN","word_loop_set3.thisN","word_loop_set3.thisIndex","word_loop_set3.ran"
0.0336,0.0335,"Stimuli/Words/word34.jpg","Stimuli/Words/word33.jpg","d",0,"d",1,0.3634,0,0,0,0,1,112,"Stimuli/Words/word51.jpg","Stimuli/Words/word52.jpg","d","third",2,0,0.0336,0.0335,"2021-11-01_20h30.35.472","01_word_task_central","2020.2.4","Win32",60,1920,1080,"",NA,NA,NA,NA,NA,NA,NA,NA,NA,NA,NA
NA,NA,"Stimuli/Words/word31.jpg","Stimuli/Words/word32.jpg","d",0,"d",1,0.3063,0,1,1,1,1,43,"Stimuli/Words/word20.jpg","Stimuli/Words/word20.jpg","s","third",2,0,0.0336,0.0335,"2021-11-01_20h30.35.472","01_word_task_central","2020.2.4","Win32",60,1920,1080,"",NA,NA,NA,NA,NA,NA,NA,NA,NA,NA,NA
NA,NA,"Stimuli/Words/word50.jpg","Stimuli/Words/word50.jpg","s",0,"s",1,0.2733,0,2,2,2,1,34,"Stimuli/Words/word11.jpg","Stimuli/Words/word11.jpg","s","third",2,0,0.0336,0.0335,"2021-11-01_20h30.35.472","01_word_task_central","2020.2.4","Win32",60,1920,1080,"",NA,NA,NA,NA,NA,NA,NA,NA,NA,NA,NA
NA,NA,"Stimuli/Words/word47.jpg","Stimuli/Words/word47.jpg","s",0,"s",1,0.276,0,3,3,3,1,40,"Stimuli/Words/word17.jpg","Stimuli/Words/word17.jpg","s","third",2,0,0.0336,0.0335,"2021-11-01_20h30.35.472","01_word_task_central","2020.2.4","Win32",60,1920,1080,"",NA,NA,NA,NA,NA,NA,NA,NA,NA,NA,NA
NA,NA,"Stimuli/Words/word36.jpg","Stimuli/Words/word35.jpg","d",0,"d",1,0.2607,0,4,4,4,1,53,"Stimuli/Words/word50.jpg","Stimuli/Words/word50.jpg","s","third",2,0,0.0336,0.0335,"2021-11-01_20h30.35.472","01_word_task_central","2020.2.4","Win32",60,1920,1080,"",NA,NA,NA,NA,NA,NA,NA,NA,NA,NA,NA
NA,NA,"Stimuli/Words/word02.jpg","Stimuli/Words/word02.jpg","s",0,"s",1,0.3232,0,5,5,5,1,38,"Stimuli/Words/word15.jpg","Stimuli/Words/word15.jpg","s","third",2,0,0.0336,0.0335,"2021-11-01_20h30.35.472","01_word_task_central","2020.2.4","Win32",60,1920,1080,"",NA,NA,NA,NA,NA,NA,NA,NA,NA,NA,NA
NA,NA,"Stimuli/Words/word57.jpg","Stimuli/Words/word57.jpg","s",0,"s",1,0.2439,0,6,6,6,1,24,"Stimuli/Words/word53.jpg","Stimuli/Words/word53.jpg","s","second",2,0,0.0336,0.0335,"2021-11-01_20h30.35.472","01_word_task_central","2020.2.4","Win32",60,1920,1080,"",NA,NA,NA,NA,NA,NA,NA,NA,NA,NA,NA
NA,NA,"Stimuli/Words/word55.jpg","Stimuli/Words/word55.jpg","s",0,"s",1,0.2718,0,7,7,7,1,56,"Stimuli/Words/word57.jpg","Stimuli/Words/word57.jpg","s","third",2,0,0.0336,0.0335,"2021-11-01_20h30.35.472","01_word_task_central","2020.2.4","Win32",60,1920,1080,"",NA,NA,NA,NA,NA,NA,NA,NA,NA,NA,NA
NA,NA,"Stimuli/Words/word51.jpg","Stimuli/Words/word52.jpg","d",0,"d",1,0.3053,0,8,8,8,1,20,"Stimuli/Words/word37.jpg","Stimuli/Words/word37.jpg","s","second",2,0,0.0336,0.0335,"2021-11-01_20h30.35.472","01_word_task_central","2020.2.4","Win32",60,1920,1080,"",NA,NA,NA,NA,NA,NA,NA,NA,NA,NA,NA
NA,NA,"Stimuli/Words/word53.jpg","Stimuli/Words/word53.jpg","s",0,"s",1,0.2784,0,9,9,9,1,15,"Stimuli/Words/word32.jpg","Stimuli/Words/word32.jpg","s","second",2,0,0.0336,0.0335,"2021-11-01_20h30.35.472","01_word_task_central","2020.2.4","Win32",60,1920,1080,"",NA,NA,NA,NA,NA,NA,NA,NA,NA,NA,NA
NA,NA,"Stimuli/Words/word15.jpg","Stimuli/Words/word15.jpg","s",0,"s",1,0.2818,0,10,10,10,1,81,"Stimuli/Words/word40.jpg","Stimuli/Words/word39.jpg","d","second",2,0,0.0336,0.0335,"2021-11-01_20h30.35.472","01_word_task_central","2020.2.4","Win32",60,1920,1080,"",NA,NA,NA,NA,NA,NA,NA,NA,NA,NA,NA
NA,NA,"Stimuli/Words/word37.jpg","Stimuli/Words/word37.jpg","s",0,"s",1,0.2524,0,11,11,11,1,84,"Stimuli/Words/word55.jpg","Stimuli/Words/word56.jpg","d","second",2,0,0.0336,0.0335,"2021-11-01_20h30.35.472","01_word_task_central","2020.2.4","Win32",60,1920,1080,"",NA,NA,NA,NA,NA,NA,NA,NA,NA,NA,NA
NA,NA,"Stimuli/Words/word32.jpg","Stimuli/Words/word32.jpg","s",0,"s",1,0.2016,0,12,12,12,1,50,"Stimuli/Words/word47.jpg","Stimuli/Words/word47.jpg","s","third",2,0,0.0336,0.0335,"2021-11-01_20h30.35.472","01_word_task_central","2020.2.4","Win32",60,1920,1080,"",NA,NA,NA,NA,NA,NA,NA,NA,NA,NA,NA
NA,NA,"Stimuli/Words/word08.jpg","Stimuli/Words/word07.jpg","d",0,"d",1,0.3344,0,13,13,13,1,107,"Stimuli/Words/word46.jpg","Stimuli/Words/word45.jpg","d","third",2,0,0.0336,0.0335,"2021-11-01_20h30.35.472","01_word_task_central","2020.2.4","Win32",60,1920,1080,"",NA,NA,NA,NA,NA,NA,NA,NA,NA,NA,NA
NA,NA,"Stimuli/Words/word45.jpg","Stimuli/Words/word46.jpg","d",0,"d",1,0.4674,0,14,14,14,1,72,"Stimuli/Words/word31.jpg","Stimuli/Words/word32.jpg","d","second",2,0,0.0336,0.0335,"2021-11-01_20h30.35.472","01_word_task_central","2020.2.4","Win32",60,1920,1080,"",NA,NA,NA,NA,NA,NA,NA,NA,NA,NA,NA
NA,NA,"Stimuli/Words/word48.jpg","Stimuli/Words/word47.jpg","d",0,"d",1,0.3355,0,15,15,15,1,64,"Stimuli/Words/word23.jpg","Stimuli/Words/word24.jpg","d","second",2,0,0.0336,0.0335,"2021-11-01_20h30.35.472","01_word_task_central","2020.2.4","Win32",60,1920,1080,"",NA,NA,NA,NA,NA,NA,NA,NA,NA,NA,NA
NA,NA,"Stimuli/Words/word17.jpg","Stimuli/Words/word17.jpg","s",0,"s",1,0.2814,0,16,16,16,1,52,"Stimuli/Words/word49.jpg","Stimuli/Words/word49.jpg","s","third",2,0,0.0336,0.0335,"2021-11-01_20h30.35.472","01_word_task_central","2020.2.4","Win32",60,1920,1080,"",NA,NA,NA,NA,NA,NA,NA,NA,NA,NA,NA
NA,NA,"Stimuli/Words/word52.jpg","Stimuli/Words/word52.jpg","s",0,"s",1,0.3098,0,17,17,17,1,29,"Stimuli/Words/word02.jpg","Stimuli/Words/word02.jpg","s","third",2,0,0.0336,0.0335,"2021-11-01_20h30.35.472","01_word_task_central","2020.2.4","Win32",60,1920,1080,"",NA,NA,NA,NA,NA,NA,NA,NA,NA,NA,NA
NA,NA,"Stimuli/Words/word39.jpg","Stimuli/Words/word39.jpg","s",0,"s",1,0.3073,0,18,18,18,1,22,"Stimuli/Words/word39.jpg","Stimuli/Words/word39.jpg","s","second",2,0,0.0336,0.0335,"2021-11-01_20h30.35.472","01_word_task_central","2020.2.4","Win32",60,1920,1080,"",NA,NA,NA,NA,NA,NA,NA,NA,NA,NA,NA
NA,NA,"Stimuli/Words/word58.jpg","Stimuli/Words/word57.jpg","d",0,"d",1,0.3705,0,19,19,19,1,82,"Stimuli/Words/word53.jpg","Stimuli/Words/word54.jpg","d","second",2,0,0.0336,0.0335,"2021-11-01_20h30.35.472","01_word_task_central","2020.2.4","Win32",60,1920,1080,"",NA,NA,NA,NA,NA,NA,NA,NA,NA,NA,NA
NA,NA,"Stimuli/Words/word49.jpg","Stimuli/Words/word49.jpg","s",0,"s",1,0.239,0,20,20,20,1,55,"Stimuli/Words/word52.jpg","Stimuli/Words/word52.jpg","s","third",2,0,0.0336,0.0335,"2021-11-01_20h30.35.472","01_word_task_central","2020.2.4","Win32",60,1920,1080,"",NA,NA,NA,NA,NA,NA,NA,NA,NA,NA,NA
NA,NA,"Stimuli/Words/word53.jpg","Stimuli/Words/word54.jpg","d",0,"d",1,0.3498,0,21,21,21,1,109,"Stimuli/Words/word48.jpg","Stimuli/Words/word47.jpg","d","third",2,0,0.0336,0.0335,"2021-11-01_20h30.35.472","01_word_task_central","2020.2.4","Win32",60,1920,1080,"",NA,NA,NA,NA,NA,NA,NA,NA,NA,NA,NA
NA,NA,"Stimuli/Words/word55.jpg","Stimuli/Words/word56.jpg","d",0,"d",1,0.2733,0,22,22,22,1,61,"Stimuli/Words/word08.jpg","Stimuli/Words/word07.jpg","d","second",2,0,0.0336,0.0335,"2021-11-01_20h30.35.472","01_word_task_central","2020.2.4","Win32",60,1920,1080,"",NA,NA,NA,NA,NA,NA,NA,NA,NA,NA,NA
NA,NA,"Stimuli/Words/word46.jpg","Stimuli/Words/word45.jpg","d",0,"d",1,0.5242,0,23,23,23,1,86,"Stimuli/Words/word01.jpg","Stimuli/Words/word02.jpg","d","third",2,0,0.0336,0.0335,"2021-11-01_20h30.35.472","01_word_task_central","2020.2.4","Win32",60,1920,1080,"",NA,NA,NA,NA,NA,NA,NA,NA,NA,NA,NA
NA,NA,"Stimuli/Words/word01.jpg","Stimuli/Words/word02.jpg","d",0,"d",1,0.3306,0,24,24,24,1,26,"Stimuli/Words/word55.jpg","Stimuli/Words/word55.jpg","s","second",2,0,0.0336,0.0335,"2021-11-01_20h30.35.472","01_word_task_central","2020.2.4","Win32",60,1920,1080,"",NA,NA,NA,NA,NA,NA,NA,NA,NA,NA,NA
NA,NA,"Stimuli/Words/word04.jpg","Stimuli/Words/word04.jpg","s",0,"s",1,0.313,0,25,25,25,1,75,"Stimuli/Words/word34.jpg","Stimuli/Words/word33.jpg","d","second",2,0,0.0336,0.0335,"2021-11-01_20h30.35.472","01_word_task_central","2020.2.4","Win32",60,1920,1080,"",NA,NA,NA,NA,NA,NA,NA,NA,NA,NA,NA
NA,NA,"Stimuli/Words/word40.jpg","Stimuli/Words/word39.jpg","d",0,"d",1,0.3225,0,26,26,26,1,77,"Stimuli/Words/word36.jpg","Stimuli/Words/word35.jpg","d","second",2,0,0.0336,0.0335,"2021-11-01_20h30.35.472","01_word_task_central","2020.2.4","Win32",60,1920,1080,"",NA,NA,NA,NA,NA,NA,NA,NA,NA,NA,NA
NA,NA,"Stimuli/Words/word11.jpg","Stimuli/Words/word11.jpg","s",0,"s",1,0.2876,0,27,27,27,1,105,"Stimuli/Words/word44.jpg","Stimuli/Words/word43.jpg","d","third",2,0,0.0336,0.0335,"2021-11-01_20h30.35.472","01_word_task_central","2020.2.4","Win32",60,1920,1080,"",NA,NA,NA,NA,NA,NA,NA,NA,NA,NA,NA
NA,NA,"Stimuli/Words/word44.jpg","Stimuli/Words/word43.jpg","d",0,"d",1,0.4049,0,28,28,28,1,115,"Stimuli/Words/word58.jpg","Stimuli/Words/word57.jpg","d","third",2,0,0.0336,0.0335,"2021-11-01_20h30.35.472","01_word_task_central","2020.2.4","Win32",60,1920,1080,"",NA,NA,NA,NA,NA,NA,NA,NA,NA,NA,NA
NA,NA,"Stimuli/Words/word19.jpg","Stimuli/Words/word20.jpg","d",0,"d",1,0.453,0,29,29,29,1,31,"Stimuli/Words/word04.jpg","Stimuli/Words/word04.jpg","s","third",2,0,0.0336,0.0335,"2021-11-01_20h30.35.472","01_word_task_central","2020.2.4","Win32",60,1920,1080,"",NA,NA,NA,NA,NA,NA,NA,NA,NA,NA,NA
NA,NA,"Stimuli/Words/word23.jpg","Stimuli/Words/word24.jpg","d",0,"d",1,0.3638,0,30,30,30,1,106,"Stimuli/Words/word45.jpg","Stimuli/Words/word46.jpg","d","third",2,0,0.0336,0.0335,"2021-11-01_20h30.35.472","01_word_task_central","2020.2.4","Win32",60,1920,1080,"",NA,NA,NA,NA,NA,NA,NA,NA,NA,NA,NA
NA,NA,"Stimuli/Words/word20.jpg","Stimuli/Words/word20.jpg","s",0,"s",1,0.3307,0,31,31,31,1,100,"Stimuli/Words/word19.jpg","Stimuli/Words/word20.jpg","d","third",2,0,0.0336,0.0335,"2021-11-01_20h30.35.472","01_word_task_central","2020.2.4","Win32",60,1920,1080,"",NA,NA,NA,NA,NA,NA,NA,NA,NA,NA,NA
NA,NA,"Stimuli/Words/word01.jpg","Stimuli/Words/word01.jpg","s",0,"s",1,0.2662,NA,NA,NA,NA,NA,94,"Stimuli/Words/word13.jpg","Stimuli/Words/word14.jpg","d","third",2,0,0.0336,0.0335,"2021-11-01_20h30.35.472","01_word_task_central","2020.2.4","Win32",60,1920,1080,"space",1.5561,0,0,0,0,1,NA,NA,NA,NA,NA
NA,NA,"Stimuli/Words/word14.jpg","Stimuli/Words/word13.jpg","d",0,"d",1,0.3012,NA,NA,NA,NA,NA,25,"Stimuli/Words/word54.jpg","Stimuli/Words/word54.jpg","s","second",2,0,0.0336,0.0335,"2021-11-01_20h30.35.472","01_word_task_central","2020.2.4","Win32",60,1920,1080,"",NA,0,1,1,1,1,NA,NA,NA,NA,NA
NA,NA,"Stimuli/Words/word05.jpg","Stimuli/Words/word05.jpg","s",0,"s",1,0.2185,NA,NA,NA,NA,NA,113,"Stimuli/Words/word52.jpg","Stimuli/Words/word51.jpg","d","third",2,0,0.0336,0.0335,"2021-11-01_20h30.35.472","01_word_task_central","2020.2.4","Win32",60,1920,1080,"",NA,0,2,2,2,1,NA,NA,NA,NA,NA
NA,NA,"Stimuli/Words/word28.jpg","Stimuli/Words/word27.jpg","d",0,"d",1,0.3139,NA,NA,NA,NA,NA,93,"Stimuli/Words/word12.jpg","Stimuli/Words/word11.jpg","d","third",2,0,0.0336,0.0335,"2021-11-01_20h30.35.472","01_word_task_central","2020.2.4","Win32",60,1920,1080,"",NA,0,3,3,3,1,NA,NA,NA,NA,NA
NA,NA,"Stimuli/Words/word22.jpg","Stimuli/Words/word21.jpg","d",0,"d",1,0.3819,NA,NA,NA,NA,NA,66,"Stimuli/Words/word25.jpg","Stimuli/Words/word26.jpg","d","second",2,0,0.0336,0.0335,"2021-11-01_20h30.35.472","01_word_task_central","2020.2.4","Win32",60,1920,1080,"",NA,0,4,4,4,1,NA,NA,NA,NA,NA
NA,NA,"Stimuli/Words/word09.jpg","Stimuli/Words/word09.jpg","s",0,"s",1,0.3246,NA,NA,NA,NA,NA,30,"Stimuli/Words/word03.jpg","Stimuli/Words/word03.jpg","s","third",2,0,0.0336,0.0335,"2021-11-01_20h30.35.472","01_word_task_central","2020.2.4","Win32",60,1920,1080,"",NA,0,5,5,5,1,NA,NA,NA,NA,NA
NA,NA,"Stimuli/Words/word03.jpg","Stimuli/Words/word04.jpg","d",0,"d",1,0.4182,NA,NA,NA,NA,NA,7,"Stimuli/Words/word24.jpg","Stimuli/Words/word24.jpg","s","second",2,0,0.0336,0.0335,"2021-11-01_20h30.35.472","01_word_task_central","2020.2.4","Win32",60,1920,1080,"",NA,0,6,6,6,1,NA,NA,NA,NA,NA
NA,NA,"Stimuli/Words/word13.jpg","Stimuli/Words/word14.jpg","d",0,"d",1,0.3268,NA,NA,NA,NA,NA,13,"Stimuli/Words/word30.jpg","Stimuli/Words/word30.jpg","s","second",2,0,0.0336,0.0335,"2021-11-01_20h30.35.472","01_word_task_central","2020.2.4","Win32",60,1920,1080,"",NA,0,7,7,7,1,NA,NA,NA,NA,NA
NA,NA,"Stimuli/Words/word41.jpg","Stimuli/Words/word41.jpg","s",0,"s",1,0.4245,NA,NA,NA,NA,NA,57,"Stimuli/Words/word58.jpg","Stimuli/Words/word58.jpg","s","third",2,0,0.0336,0.0335,"2021-11-01_20h30.35.472","01_word_task_central","2020.2.4","Win32",60,1920,1080,"",NA,0,8,8,8,1,NA,NA,NA,NA,NA
NA,NA,"Stimuli/Words/word07.jpg","Stimuli/Words/word08.jpg","d",0,"d",1,0.3408,NA,NA,NA,NA,NA,95,"Stimuli/Words/word14.jpg","Stimuli/Words/word13.jpg","d","third",2,0,0.0336,0.0335,"2021-11-01_20h30.35.472","01_word_task_central","2020.2.4","Win32",60,1920,1080,"",NA,0,9,9,9,1,NA,NA,NA,NA,NA
NA,NA,"Stimuli/Words/word21.jpg","Stimuli/Words/word21.jpg","s",0,"s",1,0.3222,NA,NA,NA,NA,NA,92,"Stimuli/Words/word11.jpg","Stimuli/Words/word12.jpg","d","third",2,0,0.0336,0.0335,"2021-11-01_20h30.35.472","01_word_task_central","2020.2.4","Win32",60,1920,1080,"",NA,0,10,10,10,1,NA,NA,NA,NA,NA
NA,NA,"Stimuli/Words/word25.jpg","Stimuli/Words/word26.jpg","d",0,"d",1,0.333,NA,NA,NA,NA,NA,96,"Stimuli/Words/word15.jpg","Stimuli/Words/word16.jpg","d","third",2,0,0.0336,0.0335,"2021-11-01_20h30.35.472","01_word_task_central","2020.2.4","Win32",60,1920,1080,"",NA,0,11,11,11,1,NA,NA,NA,NA,NA
NA,NA,"Stimuli/Words/word54.jpg","Stimuli/Words/word54.jpg","s",0,"s",1,0.2839,NA,NA,NA,NA,NA,19,"Stimuli/Words/word36.jpg","Stimuli/Words/word36.jpg","s","second",2,0,0.0336,0.0335,"2021-11-01_20h30.35.472","01_word_task_central","2020.2.4","Win32",60,1920,1080,"",NA,0,12,12,12,1,NA,NA,NA,NA,NA
NA,NA,"Stimuli/Words/word58.jpg","Stimuli/Words/word58.jpg","s",0,"s",1,0.3368,NA,NA,NA,NA,NA,89,"Stimuli/Words/word04.jpg","Stimuli/Words/word03.jpg","d","third",2,0,0.0336,0.0335,"2021-11-01_20h30.35.472","01_word_task_central","2020.2.4","Win32",60,1920,1080,"",NA,0,13,13,13,1,NA,NA,NA,NA,NA
NA,NA,"Stimuli/Words/word30.jpg","Stimuli/Words/word30.jpg","s",0,"s",1,0.2867,NA,NA,NA,NA,NA,35,"Stimuli/Words/word12.jpg","Stimuli/Words/word12.jpg","s","third",2,0,0.0336,0.0335,"2021-11-01_20h30.35.472","01_word_task_central","2020.2.4","Win32",60,1920,1080,"",NA,0,14,14,14,1,NA,NA,NA,NA,NA
NA,NA,"Stimuli/Words/word36.jpg","Stimuli/Words/word36.jpg","s",0,"s",1,0.2711,NA,NA,NA,NA,NA,99,"Stimuli/Words/word18.jpg","Stimuli/Words/word17.jpg","d","third",2,0,0.0336,0.0335,"2021-11-01_20h30.35.472","01_word_task_central","2020.2.4","Win32",60,1920,1080,"",NA,0,15,15,15,1,NA,NA,NA,NA,NA
NA,NA,"Stimuli/Words/word11.jpg","Stimuli/Words/word12.jpg","d",0,"d",1,0.4018,NA,NA,NA,NA,NA,60,"Stimuli/Words/word07.jpg","Stimuli/Words/word08.jpg","d","second",2,0,0.0336,0.0335,"2021-11-01_20h30.35.472","01_word_task_central","2020.2.4","Win32",60,1920,1080,"",NA,0,16,16,16,1,NA,NA,NA,NA,NA
NA,NA,"Stimuli/Words/word02.jpg","Stimuli/Words/word01.jpg","d",0,"d",1,0.3741,NA,NA,NA,NA,NA,4,"Stimuli/Words/word21.jpg","Stimuli/Words/word21.jpg","s","second",2,0,0.0336,0.0335,"2021-11-01_20h30.35.472","01_word_task_central","2020.2.4","Win32",60,1920,1080,"",NA,0,17,17,17,1,NA,NA,NA,NA,NA
NA,NA,"Stimuli/Words/word26.jpg","Stimuli/Words/word25.jpg","d",0,"d",1,0.3606,NA,NA,NA,NA,NA,0,"Stimuli/Words/word05.jpg","Stimuli/Words/word05.jpg","s","second",2,0,0.0336,0.0335,"2021-11-01_20h30.35.472","01_word_task_central","2020.2.4","Win32",60,1920,1080,"",NA,0,18,18,18,1,NA,NA,NA,NA,NA
NA,NA,"Stimuli/Words/word12.jpg","Stimuli/Words/word11.jpg","d",0,"d",1,0.4199,NA,NA,NA,NA,NA,32,"Stimuli/Words/word09.jpg","Stimuli/Words/word09.jpg","s","third",2,0,0.0336,0.0335,"2021-11-01_20h30.35.472","01_word_task_central","2020.2.4","Win32",60,1920,1080,"",NA,0,19,19,19,1,NA,NA,NA,NA,NA
NA,NA,"Stimuli/Words/word52.jpg","Stimuli/Words/word51.jpg","d",0,"d",1,0.3692,NA,NA,NA,NA,NA,44,"Stimuli/Words/word41.jpg","Stimuli/Words/word41.jpg","s","third",2,0,0.0336,0.0335,"2021-11-01_20h30.35.472","01_word_task_central","2020.2.4","Win32",60,1920,1080,"",NA,0,20,20,20,1,NA,NA,NA,NA,NA
NA,NA,"Stimuli/Words/word12.jpg","Stimuli/Words/word12.jpg","s",0,"s",1,0.3343,NA,NA,NA,NA,NA,67,"Stimuli/Words/word26.jpg","Stimuli/Words/word25.jpg","d","second",2,0,0.0336,0.0335,"2021-11-01_20h30.35.472","01_word_task_central","2020.2.4","Win32",60,1920,1080,"",NA,0,21,21,21,1,NA,NA,NA,NA,NA
NA,NA,"Stimuli/Words/word39.jpg","Stimuli/Words/word40.jpg","d",0,"d",1,0.3497,NA,NA,NA,NA,NA,87,"Stimuli/Words/word02.jpg","Stimuli/Words/word01.jpg","d","third",2,0,0.0336,0.0335,"2021-11-01_20h30.35.472","01_word_task_central","2020.2.4","Win32",60,1920,1080,"",NA,0,22,22,22,1,NA,NA,NA,NA,NA
NA,NA,"Stimuli/Words/word18.jpg","Stimuli/Words/word17.jpg","d",0,"d",1,0.3548,NA,NA,NA,NA,NA,80,"Stimuli/Words/word39.jpg","Stimuli/Words/word40.jpg","d","second",2,0,0.0336,0.0335,"2021-11-01_20h30.35.472","01_word_task_central","2020.2.4","Win32",60,1920,1080,"",NA,0,23,23,23,1,NA,NA,NA,NA,NA
NA,NA,"Stimuli/Words/word04.jpg","Stimuli/Words/word03.jpg","d",0,"d",1,0.3558,NA,NA,NA,NA,NA,63,"Stimuli/Words/word22.jpg","Stimuli/Words/word21.jpg","d","second",2,0,0.0336,0.0335,"2021-11-01_20h30.35.472","01_word_task_central","2020.2.4","Win32",60,1920,1080,"",NA,0,24,24,24,1,NA,NA,NA,NA,NA
NA,NA,"Stimuli/Words/word42.jpg","Stimuli/Words/word42.jpg","s",0,"s",1,0.3667,NA,NA,NA,NA,NA,45,"Stimuli/Words/word42.jpg","Stimuli/Words/word42.jpg","s","third",2,0,0.0336,0.0335,"2021-11-01_20h30.35.472","01_word_task_central","2020.2.4","Win32",60,1920,1080,"",NA,0,25,25,25,1,NA,NA,NA,NA,NA
NA,NA,"Stimuli/Words/word24.jpg","Stimuli/Words/word24.jpg","s",0,"s",1,0.2781,NA,NA,NA,NA,NA,42,"Stimuli/Words/word19.jpg","Stimuli/Words/word19.jpg","s","third",2,0,0.0336,0.0335,"2021-11-01_20h30.35.472","01_word_task_central","2020.2.4","Win32",60,1920,1080,"",NA,0,26,26,26,1,NA,NA,NA,NA,NA
NA,NA,"Stimuli/Words/word19.jpg","Stimuli/Words/word19.jpg","s",0,"s",1,0.3031,NA,NA,NA,NA,NA,69,"Stimuli/Words/word28.jpg","Stimuli/Words/word27.jpg","d","second",2,0,0.0336,0.0335,"2021-11-01_20h30.35.472","01_word_task_central","2020.2.4","Win32",60,1920,1080,"",NA,0,27,27,27,1,NA,NA,NA,NA,NA
NA,NA,"Stimuli/Words/word03.jpg","Stimuli/Words/word03.jpg","s",0,"s",1,0.279,NA,NA,NA,NA,NA,3,"Stimuli/Words/word08.jpg","Stimuli/Words/word08.jpg","s","second",2,0,0.0336,0.0335,"2021-11-01_20h30.35.472","01_word_task_central","2020.2.4","Win32",60,1920,1080,"",NA,0,28,28,28,1,NA,NA,NA,NA,NA
NA,NA,"Stimuli/Words/word46.jpg","Stimuli/Words/word46.jpg","s",0,"s",1,0.3669,NA,NA,NA,NA,NA,49,"Stimuli/Words/word46.jpg","Stimuli/Words/word46.jpg","s","third",2,0,0.0336,0.0335,"2021-11-01_20h30.35.472","01_word_task_central","2020.2.4","Win32",60,1920,1080,"",NA,0,29,29,29,1,NA,NA,NA,NA,NA
NA,NA,"Stimuli/Words/word15.jpg","Stimuli/Words/word16.jpg","d",0,"d",1,0.4305,NA,NA,NA,NA,NA,28,"Stimuli/Words/word01.jpg","Stimuli/Words/word01.jpg","s","third",2,0,0.0336,0.0335,"2021-11-01_20h30.35.472","01_word_task_central","2020.2.4","Win32",60,1920,1080,"",NA,0,30,30,30,1,NA,NA,NA,NA,NA
NA,NA,"Stimuli/Words/word08.jpg","Stimuli/Words/word08.jpg","s",0,"s",1,0.2585,NA,NA,NA,NA,NA,88,"Stimuli/Words/word03.jpg","Stimuli/Words/word04.jpg","d","third",2,0,0.0336,0.0335,"2021-11-01_20h30.35.472","01_word_task_central","2020.2.4","Win32",60,1920,1080,"",NA,0,31,31,31,1,NA,NA,NA,NA,NA
NA,NA,"Stimuli/Words/word37.jpg","Stimuli/Words/word38.jpg","d",0,"d",1,0.3335,NA,NA,NA,NA,NA,65,"Stimuli/Words/word24.jpg","Stimuli/Words/word23.jpg","d","second",2,0,0.0336,0.0335,"2021-11-01_20h30.35.472","01_word_task_central","2020.2.4","Win32",60,1920,1080,"space",3.5992,NA,NA,NA,NA,NA,0,0,0,0,1
NA,NA,"Stimuli/Words/word35.jpg","Stimuli/Words/word36.jpg","d",0,"d",1,0.4981,NA,NA,NA,NA,NA,76,"Stimuli/Words/word35.jpg","Stimuli/Words/word36.jpg","d","second",2,0,0.0336,0.0335,"2021-11-01_20h30.35.472","01_word_task_central","2020.2.4","Win32",60,1920,1080,"",NA,NA,NA,NA,NA,NA,0,1,1,1,1
NA,NA,"Stimuli/Words/word56.jpg","Stimuli/Words/word56.jpg","s",0,"s",1,0.2883,NA,NA,NA,NA,NA,5,"Stimuli/Words/word22.jpg","Stimuli/Words/word22.jpg","s","second",2,0,0.0336,0.0335,"2021-11-01_20h30.35.472","01_word_task_central","2020.2.4","Win32",60,1920,1080,"",NA,NA,NA,NA,NA,NA,0,2,2,2,1
NA,NA,"Stimuli/Words/word16.jpg","Stimuli/Words/word15.jpg","d",0,"d",1,0.4174,NA,NA,NA,NA,NA,41,"Stimuli/Words/word18.jpg","Stimuli/Words/word18.jpg","s","third",2,0,0.0336,0.0335,"2021-11-01_20h30.35.472","01_word_task_central","2020.2.4","Win32",60,1920,1080,"",NA,NA,NA,NA,NA,NA,0,3,3,3,1
NA,NA,"Stimuli/Words/word47.jpg","Stimuli/Words/word48.jpg","d",0,"d",1,0.3354,NA,NA,NA,NA,NA,103,"Stimuli/Words/word42.jpg","Stimuli/Words/word41.jpg","d","third",2,0,0.0336,0.0335,"2021-11-01_20h30.35.472","01_word_task_central","2020.2.4","Win32",60,1920,1080,"",NA,NA,NA,NA,NA,NA,0,4,4,4,1
NA,NA,"Stimuli/Words/word32.jpg","Stimuli/Words/word31.jpg","d",0,"d",1,0.3864,NA,NA,NA,NA,NA,16,"Stimuli/Words/word33.jpg","Stimuli/Words/word33.jpg","s","second",2,0,0.0336,0.0335,"2021-11-01_20h30.35.472","01_word_task_central","2020.2.4","Win32",60,1920,1080,"",NA,NA,NA,NA,NA,NA,0,5,5,5,1
NA,NA,"Stimuli/Words/word27.jpg","Stimuli/Words/word27.jpg","s",0,"s",1,0.2992,NA,NA,NA,NA,NA,6,"Stimuli/Words/word23.jpg","Stimuli/Words/word23.jpg","s","second",2,0,0.0336,0.0335,"2021-11-01_20h30.35.472","01_word_task_central","2020.2.4","Win32",60,1920,1080,"",NA,NA,NA,NA,NA,NA,0,6,6,6,1
NA,NA,"Stimuli/Words/word40.jpg","Stimuli/Words/word40.jpg","s",0,"s",1,0.3542,NA,NA,NA,NA,NA,33,"Stimuli/Words/word10.jpg","Stimuli/Words/word10.jpg","s","third",2,0,0.0336,0.0335,"2021-11-01_20h30.35.472","01_word_task_central","2020.2.4","Win32",60,1920,1080,"",NA,NA,NA,NA,NA,NA,0,7,7,7,1
NA,NA,"Stimuli/Words/word22.jpg","Stimuli/Words/word22.jpg","s",0,"s",1,0.2882,NA,NA,NA,NA,NA,73,"Stimuli/Words/word32.jpg","Stimuli/Words/word31.jpg","d","second",2,0,0.0336,0.0335,"2021-11-01_20h30.35.472","01_word_task_central","2020.2.4","Win32",60,1920,1080,"",NA,NA,NA,NA,NA,NA,0,8,8,8,1
NA,NA,"Stimuli/Words/word56.jpg","Stimuli/Words/word55.jpg","d",0,"d",1,0.3131,NA,NA,NA,NA,NA,59,"Stimuli/Words/word06.jpg","Stimuli/Words/word05.jpg","d","second",2,0,0.0336,0.0335,"2021-11-01_20h30.35.472","01_word_task_central","2020.2.4","Win32",60,1920,1080,"",NA,NA,NA,NA,NA,NA,0,9,9,9,1
NA,NA,"Stimuli/Words/word29.jpg","Stimuli/Words/word29.jpg","s",0,"s",1,0.3838,NA,NA,NA,NA,NA,12,"Stimuli/Words/word29.jpg","Stimuli/Words/word29.jpg","s","second",2,0,0.0336,0.0335,"2021-11-01_20h30.35.472","01_word_task_central","2020.2.4","Win32",60,1920,1080,"",NA,NA,NA,NA,NA,NA,0,10,10,10,1
NA,NA,"Stimuli/Words/word06.jpg","Stimuli/Words/word06.jpg","s",0,"s",1,0.3123,NA,NA,NA,NA,NA,1,"Stimuli/Words/word06.jpg","Stimuli/Words/word06.jpg","s","second",2,0,0.0336,0.0335,"2021-11-01_20h30.35.472","01_word_task_central","2020.2.4","Win32",60,1920,1080,"",NA,NA,NA,NA,NA,NA,0,11,11,11,1
NA,NA,"Stimuli/Words/word20.jpg","Stimuli/Words/word19.jpg","d",0,"d",1,0.4179,NA,NA,NA,NA,NA,70,"Stimuli/Words/word29.jpg","Stimuli/Words/word30.jpg","d","second",2,0,0.0336,0.0335,"2021-11-01_20h30.35.472","01_word_task_central","2020.2.4","Win32",60,1920,1080,"",NA,NA,NA,NA,NA,NA,0,12,12,12,1
NA,NA,"Stimuli/Words/word38.jpg","Stimuli/Words/word38.jpg","s",0,"s",1,0.3205,NA,NA,NA,NA,NA,37,"Stimuli/Words/word14.jpg","Stimuli/Words/word14.jpg","s","third",2,0,0.0336,0.0335,"2021-11-01_20h30.35.472","01_word_task_central","2020.2.4","Win32",60,1920,1080,"",NA,NA,NA,NA,NA,NA,0,13,13,13,1
NA,NA,"Stimuli/Words/word18.jpg","Stimuli/Words/word18.jpg","s",0,"s",1,0.2849,NA,NA,NA,NA,NA,78,"Stimuli/Words/word37.jpg","Stimuli/Words/word38.jpg","d","second",2,0,0.0336,0.0335,"2021-11-01_20h30.35.472","01_word_task_central","2020.2.4","Win32",60,1920,1080,"",NA,NA,NA,NA,NA,NA,0,14,14,14,1
NA,NA,"Stimuli/Words/word23.jpg","Stimuli/Words/word23.jpg","s",0,"s",1,0.3932,NA,NA,NA,NA,NA,68,"Stimuli/Words/word27.jpg","Stimuli/Words/word28.jpg","d","second",2,0,0.0336,0.0335,"2021-11-01_20h30.35.472","01_word_task_central","2020.2.4","Win32",60,1920,1080,"",NA,NA,NA,NA,NA,NA,0,15,15,15,1
NA,NA,"Stimuli/Words/word33.jpg","Stimuli/Words/word33.jpg","s",0,"s",1,0.3756,NA,NA,NA,NA,NA,104,"Stimuli/Words/word43.jpg","Stimuli/Words/word44.jpg","d","third",2,0,0.0336,0.0335,"2021-11-01_20h30.35.472","01_word_task_central","2020.2.4","Win32",60,1920,1080,"",NA,NA,NA,NA,NA,NA,0,16,16,16,1
NA,NA,"Stimuli/Words/word10.jpg","Stimuli/Words/word10.jpg","s",0,"s",1,0.3794,NA,NA,NA,NA,NA,90,"Stimuli/Words/word09.jpg","Stimuli/Words/word10.jpg","d","third",2,0,0.0336,0.0335,"2021-11-01_20h30.35.472","01_word_task_central","2020.2.4","Win32",60,1920,1080,"",NA,NA,NA,NA,NA,NA,0,17,17,17,1
NA,NA,"Stimuli/Words/word42.jpg","Stimuli/Words/word41.jpg","d",0,"d",1,0.3788,NA,NA,NA,NA,NA,8,"Stimuli/Words/word25.jpg","Stimuli/Words/word25.jpg","s","second",2,0,0.0336,0.0335,"2021-11-01_20h30.35.472","01_word_task_central","2020.2.4","Win32",60,1920,1080,"",NA,NA,NA,NA,NA,NA,0,18,18,18,1
NA,NA,"Stimuli/Words/word09.jpg","Stimuli/Words/word10.jpg","d",0,"d",1,0.3833,NA,NA,NA,NA,NA,47,"Stimuli/Words/word44.jpg","Stimuli/Words/word44.jpg","s","third",2,0,0.0336,0.0335,"2021-11-01_20h30.35.472","01_word_task_central","2020.2.4","Win32",60,1920,1080,"",NA,NA,NA,NA,NA,NA,0,19,19,19,1
NA,NA,"Stimuli/Words/word27.jpg","Stimuli/Words/word28.jpg","d",0,"d",1,0.3576,NA,NA,NA,NA,NA,23,"Stimuli/Words/word40.jpg","Stimuli/Words/word40.jpg","s","second",2,0,0.0336,0.0335,"2021-11-01_20h30.35.472","01_word_task_central","2020.2.4","Win32",60,1920,1080,"",NA,NA,NA,NA,NA,NA,0,20,20,20,1
NA,NA,"Stimuli/Words/word25.jpg","Stimuli/Words/word25.jpg","s",0,"s",1,0.3174,NA,NA,NA,NA,NA,27,"Stimuli/Words/word56.jpg","Stimuli/Words/word56.jpg","s","second",2,0,0.0336,0.0335,"2021-11-01_20h30.35.472","01_word_task_central","2020.2.4","Win32",60,1920,1080,"",NA,NA,NA,NA,NA,NA,0,21,21,21,1
NA,NA,"Stimuli/Words/word28.jpg","Stimuli/Words/word28.jpg","s",0,"s",1,0.3057,NA,NA,NA,NA,NA,11,"Stimuli/Words/word28.jpg","Stimuli/Words/word28.jpg","s","second",2,0,0.0336,0.0335,"2021-11-01_20h30.35.472","01_word_task_central","2020.2.4","Win32",60,1920,1080,"",NA,NA,NA,NA,NA,NA,0,22,22,22,1
NA,NA,"Stimuli/Words/word29.jpg","Stimuli/Words/word30.jpg","d",0,"d",1,0.3187,NA,NA,NA,NA,NA,74,"Stimuli/Words/word33.jpg","Stimuli/Words/word34.jpg","d","second",2,0,0.0336,0.0335,"2021-11-01_20h30.35.472","01_word_task_central","2020.2.4","Win32",60,1920,1080,"",NA,NA,NA,NA,NA,NA,0,23,23,23,1
NA,NA,"Stimuli/Words/word33.jpg","Stimuli/Words/word34.jpg","d",0,"d",1,0.2937,NA,NA,NA,NA,NA,101,"Stimuli/Words/word20.jpg","Stimuli/Words/word19.jpg","d","third",2,0,0.0336,0.0335,"2021-11-01_20h30.35.472","01_word_task_central","2020.2.4","Win32",60,1920,1080,"",NA,NA,NA,NA,NA,NA,0,24,24,24,1
NA,NA,"Stimuli/Words/word43.jpg","Stimuli/Words/word44.jpg","d",0,"d",1,0.3195,NA,NA,NA,NA,NA,21,"Stimuli/Words/word38.jpg","Stimuli/Words/word38.jpg","s","second",2,0,0.0336,0.0335,"2021-11-01_20h30.35.472","01_word_task_central","2020.2.4","Win32",60,1920,1080,"",NA,NA,NA,NA,NA,NA,0,25,25,25,1
NA,NA,"Stimuli/Words/word44.jpg","Stimuli/Words/word44.jpg","s",0,"s",1,0.4001,NA,NA,NA,NA,NA,10,"Stimuli/Words/word27.jpg","Stimuli/Words/word27.jpg","s","second",2,0,0.0336,0.0335,"2021-11-01_20h30.35.472","01_word_task_central","2020.2.4","Win32",60,1920,1080,"",NA,NA,NA,NA,NA,NA,0,26,26,26,1
NA,NA,"Stimuli/Words/word14.jpg","Stimuli/Words/word14.jpg","s",0,"s",1,0.332,NA,NA,NA,NA,NA,97,"Stimuli/Words/word16.jpg","Stimuli/Words/word15.jpg","d","third",2,0,0.0336,0.0335,"2021-11-01_20h30.35.472","01_word_task_central","2020.2.4","Win32",60,1920,1080,"",NA,NA,NA,NA,NA,NA,0,27,27,27,1
NA,NA,"Stimuli/Words/word24.jpg","Stimuli/Words/word23.jpg","d",0,"d",1,0.379,NA,NA,NA,NA,NA,108,"Stimuli/Words/word47.jpg","Stimuli/Words/word48.jpg","d","third",2,0,0.0336,0.0335,"2021-11-01_20h30.35.472","01_word_task_central","2020.2.4","Win32",60,1920,1080,"",NA,NA,NA,NA,NA,NA,0,28,28,28,1
NA,NA,"Stimuli/Words/word07.jpg","Stimuli/Words/word07.jpg","s",0,"s",1,0.4844,NA,NA,NA,NA,NA,2,"Stimuli/Words/word07.jpg","Stimuli/Words/word07.jpg","s","second",2,0,0.0336,0.0335,"2021-11-01_20h30.35.472","01_word_task_central","2020.2.4","Win32",60,1920,1080,"",NA,NA,NA,NA,NA,NA,0,29,29,29,1
NA,NA,"Stimuli/Words/word05.jpg","Stimuli/Words/word06.jpg","d",0,"d",1,0.3051,NA,NA,NA,NA,NA,85,"Stimuli/Words/word56.jpg","Stimuli/Words/word55.jpg","d","second",2,0,0.0336,0.0335,"2021-11-01_20h30.35.472","01_word_task_central","2020.2.4","Win32",60,1920,1080,"",NA,NA,NA,NA,NA,NA,0,30,30,30,1
NA,NA,"Stimuli/Words/word06.jpg","Stimuli/Words/word05.jpg","d",0,"d",1,0.3407,NA,NA,NA,NA,NA,58,"Stimuli/Words/word05.jpg","Stimuli/Words/word06.jpg","d","second",2,0,0.0336,0.0335,"2021-11-01_20h30.35.472","01_word_task_central","2020.2.4","Win32",60,1920,1080,"",NA,NA,NA,NA,NA,NA,0,31,31,31,1
NA,NA,"","","",NA,"",NA,NA,NA,NA,NA,NA,NA,NA,"","","","",2,0,0.0336,0.0335,"2021-11-01_20h30.35.472","01_word_task_central","2020.2.4","Win32",60,1920,1080,"space",0.148,NA,NA,NA,NA,NA,NA,NA,NA,NA,NA
