"X.Scale","Y.Scale","diff_target","diff_probe","xPosition","FW_resp.keys","FW_resp.corr","FW_resp.rt","face_loop_set1.thisRepN","face_loop_set1.thisTrialN","face_loop_set1.thisN","face_loop_set1.thisIndex","face_loop_set1.ran","targetID","imFile","imFile2","corr","trial_type","position","screen","x_scale","y_scale","date","expName","psychopyVersion","OS","frameRate","xResolution","yResolution","same_target","same_probe","face_loop_set2.thisRepN","face_loop_set2.thisTrialN","face_loop_set2.thisN","face_loop_set2.thisIndex","face_loop_set2.ran","face_loop_set3.thisRepN","face_loop_set3.thisTrialN","face_loop_set3.thisN","face_loop_set3.thisIndex","face_loop_set3.ran"
0.0591,0.0599,"Stimuli/Faces/CF0052_1100.jpg","Stimuli/Faces/CM0008_1100.jpg",0,"d",1,0.9704,0,0,0,9,1,9,"rand_face","rand_face","d","d",2,0,0.0591,0.0599,"2021-11-17_17h10.03.629","02_face_task_central","2020.2.4","Win32",60,1280,720,"","",NA,NA,NA,NA,NA,NA,NA,NA,NA,NA
NA,NA,"Stimuli/Faces/CM0039_1100.jpg","Stimuli/Faces/CF0020_1100.jpg",0,"d",1,0.822,0,1,1,6,1,6,"rand_face","rand_face","d","d",2,0,0.0591,0.0599,"2021-11-17_17h10.03.629","02_face_task_central","2020.2.4","Win32",60,1280,720,"","",NA,NA,NA,NA,NA,NA,NA,NA,NA,NA
NA,NA,"","",0,"d",0,1.1017,0,2,2,31,1,31,"same_face","same_face","s","s",2,0,0.0591,0.0599,"2021-11-17_17h10.03.629","02_face_task_central","2020.2.4","Win32",60,1280,720,"Stimuli/Faces/CM0008_1100.jpg","Stimuli/Faces/CM0008_1100.jpg",NA,NA,NA,NA,NA,NA,NA,NA,NA,NA
NA,NA,"","",0,"s",1,0.8151,0,3,3,17,1,17,"same_face","same_face","s","s",2,0,0.0591,0.0599,"2021-11-17_17h10.03.629","02_face_task_central","2020.2.4","Win32",60,1280,720,"Stimuli/Faces/CF0020_1100.jpg","Stimuli/Faces/CF0020_1100.jpg",NA,NA,NA,NA,NA,NA,NA,NA,NA,NA
NA,NA,"Stimuli/Faces/CM0009_1100.jpg","Stimuli/Faces/CM0015_1100.jpg",0,"d",1,1.0416,0,4,4,1,1,1,"rand_face","rand_face","d","d",2,0,0.0591,0.0599,"2021-11-17_17h10.03.629","02_face_task_central","2020.2.4","Win32",60,1280,720,"","",NA,NA,NA,NA,NA,NA,NA,NA,NA,NA
NA,NA,"Stimuli/Faces/CM0005_1100.jpg","Stimuli/Faces/CM0005_1100.jpg",0,"s",0,1.1273,0,5,5,13,1,13,"rand_face","rand_face","d","d",2,0,0.0591,0.0599,"2021-11-17_17h10.03.629","02_face_task_central","2020.2.4","Win32",60,1280,720,"","",NA,NA,NA,NA,NA,NA,NA,NA,NA,NA
NA,NA,"Stimuli/Faces/CM0008_1100.jpg","Stimuli/Faces/CM0010_1100.jpg",0,"d",1,0.9403,0,6,6,8,1,8,"rand_face","rand_face","d","d",2,0,0.0591,0.0599,"2021-11-17_17h10.03.629","02_face_task_central","2020.2.4","Win32",60,1280,720,"","",NA,NA,NA,NA,NA,NA,NA,NA,NA,NA
NA,NA,"Stimuli/Faces/CM0046_1100.jpg","Stimuli/Faces/CM0030_1100.jpg",0,"d",1,1.2449,0,7,7,12,1,12,"rand_face","rand_face","d","d",2,0,0.0591,0.0599,"2021-11-17_17h10.03.629","02_face_task_central","2020.2.4","Win32",60,1280,720,"","",NA,NA,NA,NA,NA,NA,NA,NA,NA,NA
NA,NA,"Stimuli/Faces/CF0026_1110.jpg","Stimuli/Faces/CF0035_1100.jpg",0,"d",1,0.9191,0,8,8,2,1,2,"rand_face","rand_face","d","d",2,0,0.0591,0.0599,"2021-11-17_17h10.03.629","02_face_task_central","2020.2.4","Win32",60,1280,720,"","",NA,NA,NA,NA,NA,NA,NA,NA,NA,NA
NA,NA,"Stimuli/Faces/CM0048_1100.jpg","Stimuli/Faces/CM0044_1100.jpg",0,"d",1,1.2531,0,9,9,4,1,4,"rand_face","rand_face","d","d",2,0,0.0591,0.0599,"2021-11-17_17h10.03.629","02_face_task_central","2020.2.4","Win32",60,1280,720,"","",NA,NA,NA,NA,NA,NA,NA,NA,NA,NA
NA,NA,"","",0,"s",1,1.6397,0,10,10,26,1,26,"same_face","same_face","s","s",2,0,0.0591,0.0599,"2021-11-17_17h10.03.629","02_face_task_central","2020.2.4","Win32",60,1280,720,"Stimuli/Faces/CM0015_1100.jpg","Stimuli/Faces/CM0015_1100.jpg",NA,NA,NA,NA,NA,NA,NA,NA,NA,NA
NA,NA,"","",0,"s",1,1.2022,0,11,11,30,1,30,"same_face","same_face","s","s",2,0,0.0591,0.0599,"2021-11-17_17h10.03.629","02_face_task_central","2020.2.4","Win32",60,1280,720,"Stimuli/Faces/CM0005_1100.jpg","Stimuli/Faces/CM0005_1100.jpg",NA,NA,NA,NA,NA,NA,NA,NA,NA,NA
NA,NA,"","",0,"s",1,0.8813,0,12,12,16,1,16,"same_face","same_face","s","s",2,0,0.0591,0.0599,"2021-11-17_17h10.03.629","02_face_task_central","2020.2.4","Win32",60,1280,720,"Stimuli/Faces/CM0010_1100.jpg","Stimuli/Faces/CM0010_1100.jpg",NA,NA,NA,NA,NA,NA,NA,NA,NA,NA
NA,NA,"","",0,"s",1,1.4977,0,13,13,19,1,19,"same_face","same_face","s","s",2,0,0.0591,0.0599,"2021-11-17_17h10.03.629","02_face_task_central","2020.2.4","Win32",60,1280,720,"Stimuli/Faces/CM0030_1100.jpg","Stimuli/Faces/CM0030_1100.jpg",NA,NA,NA,NA,NA,NA,NA,NA,NA,NA
NA,NA,"Stimuli/Faces/CF0055_1100.jpg","Stimuli/Faces/CF0009_1100.jpg",0,"d",1,2.375,0,14,14,7,1,7,"rand_face","rand_face","d","d",2,0,0.0591,0.0599,"2021-11-17_17h10.03.629","02_face_task_central","2020.2.4","Win32",60,1280,720,"","",NA,NA,NA,NA,NA,NA,NA,NA,NA,NA
NA,NA,"","",0,"s",1,2.3053,0,15,15,24,1,24,"same_face","same_face","s","s",2,0,0.0591,0.0599,"2021-11-17_17h10.03.629","02_face_task_central","2020.2.4","Win32",60,1280,720,"Stimuli/Faces/CF0035_1100.jpg","Stimuli/Faces/CF0035_1100.jpg",NA,NA,NA,NA,NA,NA,NA,NA,NA,NA
NA,NA,"","",0,"s",1,1.4491,0,16,16,21,1,21,"same_face","same_face","s","s",2,0,0.0591,0.0599,"2021-11-17_17h10.03.629","02_face_task_central","2020.2.4","Win32",60,1280,720,"Stimuli/Faces/CM0044_1100.jpg","Stimuli/Faces/CM0044_1100.jpg",NA,NA,NA,NA,NA,NA,NA,NA,NA,NA
NA,NA,"Stimuli/Faces/CM0028_1100.jpg","Stimuli/Faces/CM0011_1100.jpg",0,"d",1,1.0115,0,17,17,3,1,3,"rand_face","rand_face","d","d",2,0,0.0591,0.0599,"2021-11-17_17h10.03.629","02_face_task_central","2020.2.4","Win32",60,1280,720,"","",NA,NA,NA,NA,NA,NA,NA,NA,NA,NA
NA,NA,"","",0,"d",0,54.3768,0,18,18,25,1,25,"same_face","same_face","s","s",2,0,0.0591,0.0599,"2021-11-17_17h10.03.629","02_face_task_central","2020.2.4","Win32",60,1280,720,"Stimuli/Faces/CF0009_1100.jpg","Stimuli/Faces/CF0009_1100.jpg",NA,NA,NA,NA,NA,NA,NA,NA,NA,NA
NA,NA,"Stimuli/Faces/CF0013_1110.jpg","Stimuli/Faces/CM0007_1100.jpg",0,"d",1,1.2064,0,19,19,0,1,0,"rand_face","rand_face","d","d",2,0,0.0591,0.0599,"2021-11-17_17h10.03.629","02_face_task_central","2020.2.4","Win32",60,1280,720,"","",NA,NA,NA,NA,NA,NA,NA,NA,NA,NA
NA,NA,"","",0,"s",1,1.0239,0,20,20,22,1,22,"same_face","same_face","s","s",2,0,0.0591,0.0599,"2021-11-17_17h10.03.629","02_face_task_central","2020.2.4","Win32",60,1280,720,"Stimuli/Faces/CM0011_1100.jpg","Stimuli/Faces/CM0011_1100.jpg",NA,NA,NA,NA,NA,NA,NA,NA,NA,NA
NA,NA,"Stimuli/Faces/CM0031_1100.jpg","Stimuli/Faces/CM0041_1100.jpg",0,"d",1,2.4148,0,21,21,11,1,11,"rand_face","rand_face","d","d",2,0,0.0591,0.0599,"2021-11-17_17h10.03.629","02_face_task_central","2020.2.4","Win32",60,1280,720,"","",NA,NA,NA,NA,NA,NA,NA,NA,NA,NA
NA,NA,"","",0,"s",1,1.7989,0,22,22,18,1,18,"same_face","same_face","s","s",2,0,0.0591,0.0599,"2021-11-17_17h10.03.629","02_face_task_central","2020.2.4","Win32",60,1280,720,"Stimuli/Faces/CM0007_1100.jpg","Stimuli/Faces/CM0007_1100.jpg",NA,NA,NA,NA,NA,NA,NA,NA,NA,NA
NA,NA,"Stimuli/Faces/CM0039_3300.jpg","Stimuli/Faces/CM0029_2200.jpg",0,"d",1,2.4413,0,23,23,15,1,15,"rand_face","rand_face","d","d",2,0,0.0591,0.0599,"2021-11-17_17h10.03.629","02_face_task_central","2020.2.4","Win32",60,1280,720,"","",NA,NA,NA,NA,NA,NA,NA,NA,NA,NA
NA,NA,"","",0,"s",1,1.8085,0,24,24,29,1,29,"same_face","same_face","s","s",2,0,0.0591,0.0599,"2021-11-17_17h10.03.629","02_face_task_central","2020.2.4","Win32",60,1280,720,"Stimuli/Faces/CM0041_1100.jpg","Stimuli/Faces/CM0041_1100.jpg",NA,NA,NA,NA,NA,NA,NA,NA,NA,NA
NA,NA,"","",0,"s",1,1.1289,0,25,25,20,1,20,"same_face","same_face","s","s",2,0,0.0591,0.0599,"2021-11-17_17h10.03.629","02_face_task_central","2020.2.4","Win32",60,1280,720,"Stimuli/Faces/CM0029_2200.jpg","Stimuli/Faces/CM0029_2200.jpg",NA,NA,NA,NA,NA,NA,NA,NA,NA,NA
NA,NA,"","",0,"s",1,1.344,0,26,26,28,1,28,"same_face","same_face","s","s",2,0,0.0591,0.0599,"2021-11-17_17h10.03.629","02_face_task_central","2020.2.4","Win32",60,1280,720,"Stimuli/Faces/CF0032_1100.jpg","Stimuli/Faces/CF0032_1100.jpg",NA,NA,NA,NA,NA,NA,NA,NA,NA,NA
NA,NA,"Stimuli/Faces/CM0011_1100.jpg","Stimuli/Faces/CF0032_1100.jpg",0,"d",1,1.1509,0,27,27,14,1,14,"rand_face","rand_face","d","d",2,0,0.0591,0.0599,"2021-11-17_17h10.03.629","02_face_task_central","2020.2.4","Win32",60,1280,720,"","",NA,NA,NA,NA,NA,NA,NA,NA,NA,NA
NA,NA,"Stimuli/Faces/CM0047_1100.jpg","Stimuli/Faces/CM0040_1100.jpg",0,"s",0,4.8966,0,28,28,10,1,10,"rand_face","rand_face","d","d",2,0,0.0591,0.0599,"2021-11-17_17h10.03.629","02_face_task_central","2020.2.4","Win32",60,1280,720,"","",NA,NA,NA,NA,NA,NA,NA,NA,NA,NA
NA,NA,"Stimuli/Faces/CF0057_1100.jpg","Stimuli/Faces/CM0045_1100.jpg",0,"d",1,1.2018,0,29,29,5,1,5,"rand_face","rand_face","d","d",2,0,0.0591,0.0599,"2021-11-17_17h10.03.629","02_face_task_central","2020.2.4","Win32",60,1280,720,"","",NA,NA,NA,NA,NA,NA,NA,NA,NA,NA
NA,NA,"","",0,"d",0,0.9494,0,30,30,27,1,27,"same_face","same_face","s","s",2,0,0.0591,0.0599,"2021-11-17_17h10.03.629","02_face_task_central","2020.2.4","Win32",60,1280,720,"Stimuli/Faces/CM0040_1100.jpg","Stimuli/Faces/CM0040_1100.jpg",NA,NA,NA,NA,NA,NA,NA,NA,NA,NA
NA,NA,"","",0,"s",1,2.0938,0,31,31,23,1,23,"same_face","same_face","s","s",2,0,0.0591,0.0599,"2021-11-17_17h10.03.629","02_face_task_central","2020.2.4","Win32",60,1280,720,"Stimuli/Faces/CM0045_1100.jpg","Stimuli/Faces/CM0045_1100.jpg",NA,NA,NA,NA,NA,NA,NA,NA,NA,NA
NA,NA,"","",0,"s",1,1.3612,NA,NA,NA,NA,NA,53,"same_face","same_face","s","s",2,0,0.0591,0.0599,"2021-11-17_17h10.03.629","02_face_task_central","2020.2.4","Win32",60,1280,720,"Stimuli/Faces/CF0008_1100.jpg","Stimuli/Faces/CF0008_1100.jpg",0,0,0,17,1,NA,NA,NA,NA,NA
NA,NA,"Stimuli/Faces/CF0034_1100.jpg","Stimuli/Faces/CF0008_1100.jpg",0,"d",1,1.7257,NA,NA,NA,NA,NA,51,"rand_face","rand_face","d","d",2,0,0.0591,0.0599,"2021-11-17_17h10.03.629","02_face_task_central","2020.2.4","Win32",60,1280,720,"","",0,1,1,15,1,NA,NA,NA,NA,NA
NA,NA,"Stimuli/Faces/CF0007_1100.jpg","Stimuli/Faces/CF0055_1100.jpg",0,"d",1,1.7301,NA,NA,NA,NA,NA,36,"rand_face","rand_face","d","d",2,0,0.0591,0.0599,"2021-11-17_17h10.03.629","02_face_task_central","2020.2.4","Win32",60,1280,720,"","",0,2,2,0,1,NA,NA,NA,NA,NA
NA,NA,"Stimuli/Faces/CF0021_1100.jpg","Stimuli/Faces/CF0057_1100.jpg",0,"s",0,2.5325,NA,NA,NA,NA,NA,49,"rand_face","rand_face","d","d",2,0,0.0591,0.0599,"2021-11-17_17h10.03.629","02_face_task_central","2020.2.4","Win32",60,1280,720,"","",0,3,3,13,1,NA,NA,NA,NA,NA
NA,NA,"","",0,"s",1,0.9571,NA,NA,NA,NA,NA,52,"same_face","same_face","s","s",2,0,0.0591,0.0599,"2021-11-17_17h10.03.629","02_face_task_central","2020.2.4","Win32",60,1280,720,"Stimuli/Faces/CF0055_1100.jpg","Stimuli/Faces/CF0055_1100.jpg",0,4,4,16,1,NA,NA,NA,NA,NA
NA,NA,"Stimuli/Faces/CM0025_1100.jpg","Stimuli/Faces/CF0058_1100.jpg",0,"d",1,0.7764,NA,NA,NA,NA,NA,42,"rand_face","rand_face","d","d",2,0,0.0591,0.0599,"2021-11-17_17h10.03.629","02_face_task_central","2020.2.4","Win32",60,1280,720,"","",0,5,5,6,1,NA,NA,NA,NA,NA
NA,NA,"","",0,"s",1,1.3169,NA,NA,NA,NA,NA,54,"same_face","same_face","s","s",2,0,0.0591,0.0599,"2021-11-17_17h10.03.629","02_face_task_central","2020.2.4","Win32",60,1280,720,"Stimuli/Faces/CF0057_1100.jpg","Stimuli/Faces/CF0057_1100.jpg",0,6,6,18,1,NA,NA,NA,NA,NA
NA,NA,"Stimuli/Faces/CM0029_1100.jpg","Stimuli/Faces/CM0025_1100.jpg",0,"d",1,0.8505,NA,NA,NA,NA,NA,43,"rand_face","rand_face","d","d",2,0,0.0591,0.0599,"2021-11-17_17h10.03.629","02_face_task_central","2020.2.4","Win32",60,1280,720,"","",0,7,7,7,1,NA,NA,NA,NA,NA
NA,NA,"","",0,"s",1,0.9088,NA,NA,NA,NA,NA,61,"same_face","same_face","s","s",2,0,0.0591,0.0599,"2021-11-17_17h10.03.629","02_face_task_central","2020.2.4","Win32",60,1280,720,"Stimuli/Faces/CF0058_1100.jpg","Stimuli/Faces/CF0058_1100.jpg",0,8,8,25,1,NA,NA,NA,NA,NA
NA,NA,"","",0,"s",1,0.9705,NA,NA,NA,NA,NA,56,"same_face","same_face","s","s",2,0,0.0591,0.0599,"2021-11-17_17h10.03.629","02_face_task_central","2020.2.4","Win32",60,1280,720,"Stimuli/Faces/CM0025_1100.jpg","Stimuli/Faces/CM0025_1100.jpg",0,9,9,20,1,NA,NA,NA,NA,NA
NA,NA,"","",0,"s",1,0.8929,NA,NA,NA,NA,NA,63,"same_face","same_face","s","s",2,0,0.0591,0.0599,"2021-11-17_17h10.03.629","02_face_task_central","2020.2.4","Win32",60,1280,720,"Stimuli/Faces/CF0034_1100.jpg","Stimuli/Faces/CF0034_1100.jpg",0,10,10,27,1,NA,NA,NA,NA,NA
NA,NA,"Stimuli/Faces/CF0058_1100.jpg","Stimuli/Faces/CF0034_1100.jpg",0,"s",0,1.0095,NA,NA,NA,NA,NA,39,"rand_face","rand_face","d","d",2,0,0.0591,0.0599,"2021-11-17_17h10.03.629","02_face_task_central","2020.2.4","Win32",60,1280,720,"","",0,11,11,3,1,NA,NA,NA,NA,NA
NA,NA,"Stimuli/Faces/CM0030_1100.jpg","Stimuli/Faces/CM0050_1100.jpg",0,"d",1,1.1767,NA,NA,NA,NA,NA,48,"rand_face","rand_face","d","d",2,0,0.0591,0.0599,"2021-11-17_17h10.03.629","02_face_task_central","2020.2.4","Win32",60,1280,720,"","",0,12,12,12,1,NA,NA,NA,NA,NA
NA,NA,"Stimuli/Faces/CF0016_1100.jpg","Stimuli/Faces/CF0046_1100.jpg",0,"d",1,0.9266,NA,NA,NA,NA,NA,38,"rand_face","rand_face","d","d",2,0,0.0591,0.0599,"2021-11-17_17h10.03.629","02_face_task_central","2020.2.4","Win32",60,1280,720,"","",0,13,13,2,1,NA,NA,NA,NA,NA
NA,NA,"Stimuli/Faces/CF0033_1100.jpg","Stimuli/Faces/CF0007_1100.jpg",0,"s",0,1.1726,NA,NA,NA,NA,NA,46,"rand_face","rand_face","d","d",2,0,0.0591,0.0599,"2021-11-17_17h10.03.629","02_face_task_central","2020.2.4","Win32",60,1280,720,"","",0,14,14,10,1,NA,NA,NA,NA,NA
NA,NA,"","",0,"s",1,1.6195,NA,NA,NA,NA,NA,62,"same_face","same_face","s","s",2,0,0.0591,0.0599,"2021-11-17_17h10.03.629","02_face_task_central","2020.2.4","Win32",60,1280,720,"Stimuli/Faces/CM0050_1100.jpg","Stimuli/Faces/CM0050_1100.jpg",0,15,15,26,1,NA,NA,NA,NA,NA
NA,NA,"","",0,"s",1,1.4002,NA,NA,NA,NA,NA,59,"same_face","same_face","s","s",2,0,0.0591,0.0599,"2021-11-17_17h10.03.629","02_face_task_central","2020.2.4","Win32",60,1280,720,"Stimuli/Faces/CF0046_1100.jpg","Stimuli/Faces/CF0046_1100.jpg",0,16,16,23,1,NA,NA,NA,NA,NA
NA,NA,"Stimuli/Faces/CF0046_1100.jpg","Stimuli/Faces/CF0026_1110.jpg",0,"d",1,1.3169,NA,NA,NA,NA,NA,47,"rand_face","rand_face","d","d",2,0,0.0591,0.0599,"2021-11-17_17h10.03.629","02_face_task_central","2020.2.4","Win32",60,1280,720,"","",0,17,17,11,1,NA,NA,NA,NA,NA
NA,NA,"Stimuli/Faces/CM0045_1100.jpg","Stimuli/Faces/CF0013_1110.jpg",0,"d",1,1.1424,NA,NA,NA,NA,NA,45,"rand_face","rand_face","d","d",2,0,0.0591,0.0599,"2021-11-17_17h10.03.629","02_face_task_central","2020.2.4","Win32",60,1280,720,"","",0,18,18,9,1,NA,NA,NA,NA,NA
NA,NA,"Stimuli/Faces/CM0029_2200.jpg","Stimuli/Faces/CF0010_1100.jpg",0,"s",0,1.3745,NA,NA,NA,NA,NA,41,"rand_face","rand_face","d","d",2,0,0.0591,0.0599,"2021-11-17_17h10.03.629","02_face_task_central","2020.2.4","Win32",60,1280,720,"","",0,19,19,5,1,NA,NA,NA,NA,NA
NA,NA,"","",0,"s",1,1.9685,NA,NA,NA,NA,NA,58,"same_face","same_face","s","s",2,0,0.0591,0.0599,"2021-11-17_17h10.03.629","02_face_task_central","2020.2.4","Win32",60,1280,720,"Stimuli/Faces/CF0007_1100.jpg","Stimuli/Faces/CF0007_1100.jpg",0,20,20,22,1,NA,NA,NA,NA,NA
NA,NA,"","",0,"s",1,1.6014,NA,NA,NA,NA,NA,65,"same_face","same_face","s","s",2,0,0.0591,0.0599,"2021-11-17_17h10.03.629","02_face_task_central","2020.2.4","Win32",60,1280,720,"Stimuli/Faces/CF0026_1110.jpg","Stimuli/Faces/CF0026_1110.jpg",0,21,21,29,1,NA,NA,NA,NA,NA
NA,NA,"","",0,"s",1,0.9631,NA,NA,NA,NA,NA,66,"same_face","same_face","s","s",2,0,0.0591,0.0599,"2021-11-17_17h10.03.629","02_face_task_central","2020.2.4","Win32",60,1280,720,"Stimuli/Faces/CF0013_1110.jpg","Stimuli/Faces/CF0013_1110.jpg",0,22,22,30,1,NA,NA,NA,NA,NA
NA,NA,"Stimuli/Faces/CM0010_1100.jpg","Stimuli/Faces/CF0012_3320.jpg",0,"d",1,0.8738,NA,NA,NA,NA,NA,44,"rand_face","rand_face","d","d",2,0,0.0591,0.0599,"2021-11-17_17h10.03.629","02_face_task_central","2020.2.4","Win32",60,1280,720,"","",0,23,23,8,1,NA,NA,NA,NA,NA
NA,NA,"","",0,"s",1,2.2724,NA,NA,NA,NA,NA,57,"same_face","same_face","s","s",2,0,0.0591,0.0599,"2021-11-17_17h10.03.629","02_face_task_central","2020.2.4","Win32",60,1280,720,"Stimuli/Faces/CF0010_1100.jpg","Stimuli/Faces/CF0010_1100.jpg",0,24,24,21,1,NA,NA,NA,NA,NA
NA,NA,"","",0,"d",0,2.6893,NA,NA,NA,NA,NA,60,"same_face","same_face","s","s",2,0,0.0591,0.0599,"2021-11-17_17h10.03.629","02_face_task_central","2020.2.4","Win32",60,1280,720,"Stimuli/Faces/CF0012_3320.jpg","Stimuli/Faces/CF0012_3320.jpg",0,25,25,24,1,NA,NA,NA,NA,NA
NA,NA,"","",0,"s",1,1.4431,NA,NA,NA,NA,NA,67,"same_face","same_face","s","s",2,0,0.0591,0.0599,"2021-11-17_17h10.03.629","02_face_task_central","2020.2.4","Win32",60,1280,720,"Stimuli/Faces/CF0040_1110.jpg","Stimuli/Faces/CF0040_1110.jpg",0,26,26,31,1,NA,NA,NA,NA,NA
NA,NA,"","",0,"s",1,2.3993,NA,NA,NA,NA,NA,55,"same_face","same_face","s","s",2,0,0.0591,0.0599,"2021-11-17_17h10.03.629","02_face_task_central","2020.2.4","Win32",60,1280,720,"Stimuli/Faces/CM0031_1100.jpg","Stimuli/Faces/CM0031_1100.jpg",0,27,27,19,1,NA,NA,NA,NA,NA
NA,NA,"Stimuli/Faces/CF0032_1100.jpg","Stimuli/Faces/CF0040_1110.jpg",0,"d",1,1.3321,NA,NA,NA,NA,NA,37,"rand_face","rand_face","d","d",2,0,0.0591,0.0599,"2021-11-17_17h10.03.629","02_face_task_central","2020.2.4","Win32",60,1280,720,"","",0,28,28,1,1,NA,NA,NA,NA,NA
NA,NA,"Stimuli/Faces/CM0015_1100.jpg","Stimuli/Faces/CM0031_1100.jpg",0,"s",0,1.5084,NA,NA,NA,NA,NA,40,"rand_face","rand_face","d","d",2,0,0.0591,0.0599,"2021-11-17_17h10.03.629","02_face_task_central","2020.2.4","Win32",60,1280,720,"","",0,29,29,4,1,NA,NA,NA,NA,NA
NA,NA,"Stimuli/Faces/CF0020_1100.jpg","Stimuli/Faces/CM0024_3100.jpg",0,"s",0,1.5111,NA,NA,NA,NA,NA,50,"rand_face","rand_face","d","d",2,0,0.0591,0.0599,"2021-11-17_17h10.03.629","02_face_task_central","2020.2.4","Win32",60,1280,720,"","",0,30,30,14,1,NA,NA,NA,NA,NA
NA,NA,"","",0,"s",1,6.8234,NA,NA,NA,NA,NA,64,"same_face","same_face","s","s",2,0,0.0591,0.0599,"2021-11-17_17h10.03.629","02_face_task_central","2020.2.4","Win32",60,1280,720,"Stimuli/Faces/CM0024_3100.jpg","Stimuli/Faces/CM0024_3100.jpg",0,31,31,28,1,NA,NA,NA,NA,NA
NA,NA,"","",0,"s",1,1.4295,NA,NA,NA,NA,NA,88,"same_face","same_face","s","s",2,0,0.0591,0.0599,"2021-11-17_17h10.03.629","02_face_task_central","2020.2.4","Win32",60,1280,720,"Stimuli/Faces/CM0029_1100.jpg","Stimuli/Faces/CM0029_1100.jpg",NA,NA,NA,NA,NA,0,0,0,16,1
NA,NA,"Stimuli/Faces/CF0050_1100.jpg","Stimuli/Faces/CM0029_1100.jpg",0,"d",1,1.4449,NA,NA,NA,NA,NA,80,"rand_face","rand_face","d","d",2,0,0.0591,0.0599,"2021-11-17_17h10.03.629","02_face_task_central","2020.2.4","Win32",60,1280,720,"","",NA,NA,NA,NA,NA,0,1,1,8,1
NA,NA,"","",0,"d",0,8.7956,NA,NA,NA,NA,NA,101,"same_face","same_face","s","s",2,0,0.0591,0.0599,"2021-11-17_17h10.03.629","02_face_task_central","2020.2.4","Win32",60,1280,720,"Stimuli/Faces/CM0046_1100.jpg","Stimuli/Faces/CM0046_1100.jpg",NA,NA,NA,NA,NA,0,2,2,29,1
NA,NA,"Stimuli/Faces/CM0024_3100.jpg","Stimuli/Faces/CM0046_1100.jpg",0,"d",1,1.161,NA,NA,NA,NA,NA,74,"rand_face","rand_face","d","d",2,0,0.0591,0.0599,"2021-11-17_17h10.03.629","02_face_task_central","2020.2.4","Win32",60,1280,720,"","",NA,NA,NA,NA,NA,0,3,3,2,1
NA,NA,"Stimuli/Faces/CF0031_1100.jpg","Stimuli/Faces/CF0050_1100.jpg",0,"d",1,1.1938,NA,NA,NA,NA,NA,84,"rand_face","rand_face","d","d",2,0,0.0591,0.0599,"2021-11-17_17h10.03.629","02_face_task_central","2020.2.4","Win32",60,1280,720,"","",NA,NA,NA,NA,NA,0,4,4,12,1
NA,NA,"Stimuli/Faces/CF0023_1100.jpg","Stimuli/Faces/CM0028_1100.jpg",0,"d",1,0.9633,NA,NA,NA,NA,NA,79,"rand_face","rand_face","d","d",2,0,0.0591,0.0599,"2021-11-17_17h10.03.629","02_face_task_central","2020.2.4","Win32",60,1280,720,"","",NA,NA,NA,NA,NA,0,5,5,7,1
NA,NA,"Stimuli/Faces/CF0012_3320.jpg","Stimuli/Faces/CF0021_1100.jpg",0,"s",0,1.2468,NA,NA,NA,NA,NA,86,"rand_face","rand_face","d","d",2,0,0.0591,0.0599,"2021-11-17_17h10.03.629","02_face_task_central","2020.2.4","Win32",60,1280,720,"","",NA,NA,NA,NA,NA,0,6,6,14,1
NA,NA,"Stimuli/Faces/CF0035_1100.jpg","Stimuli/Faces/CM0047_1100.jpg",0,"d",1,1.1611,NA,NA,NA,NA,NA,76,"rand_face","rand_face","d","d",2,0,0.0591,0.0599,"2021-11-17_17h10.03.629","02_face_task_central","2020.2.4","Win32",60,1280,720,"","",NA,NA,NA,NA,NA,0,7,7,4,1
NA,NA,"","",0,"s",1,1.3694,NA,NA,NA,NA,NA,100,"same_face","same_face","s","s",2,0,0.0591,0.0599,"2021-11-17_17h10.03.629","02_face_task_central","2020.2.4","Win32",60,1280,720,"Stimuli/Faces/CF0050_1100.jpg","Stimuli/Faces/CF0050_1100.jpg",NA,NA,NA,NA,NA,0,8,8,28,1
NA,NA,"","",0,"s",1,0.9696,NA,NA,NA,NA,NA,95,"same_face","same_face","s","s",2,0,0.0591,0.0599,"2021-11-17_17h10.03.629","02_face_task_central","2020.2.4","Win32",60,1280,720,"Stimuli/Faces/CM0028_1100.jpg","Stimuli/Faces/CM0028_1100.jpg",NA,NA,NA,NA,NA,0,9,9,23,1
NA,NA,"Stimuli/Faces/CM0040_1100.jpg","Stimuli/Faces/CF0016_1100.jpg",0,"d",1,0.7276,NA,NA,NA,NA,NA,81,"rand_face","rand_face","d","d",2,0,0.0591,0.0599,"2021-11-17_17h10.03.629","02_face_task_central","2020.2.4","Win32",60,1280,720,"","",NA,NA,NA,NA,NA,0,10,10,9,1
NA,NA,"","",0,"s",1,1.3115,NA,NA,NA,NA,NA,103,"same_face","same_face","s","s",2,0,0.0591,0.0599,"2021-11-17_17h10.03.629","02_face_task_central","2020.2.4","Win32",60,1280,720,"Stimuli/Faces/CF0021_1100.jpg","Stimuli/Faces/CF0021_1100.jpg",NA,NA,NA,NA,NA,0,11,11,31,1
NA,NA,"","",0,"s",1,0.631,NA,NA,NA,NA,NA,102,"same_face","same_face","s","s",2,0,0.0591,0.0599,"2021-11-17_17h10.03.629","02_face_task_central","2020.2.4","Win32",60,1280,720,"Stimuli/Faces/CM0047_1100.jpg","Stimuli/Faces/CM0047_1100.jpg",NA,NA,NA,NA,NA,0,12,12,30,1
NA,NA,"","",0,"d",0,3.223,NA,NA,NA,NA,NA,89,"same_face","same_face","s","s",2,0,0.0591,0.0599,"2021-11-17_17h10.03.629","02_face_task_central","2020.2.4","Win32",60,1280,720,"Stimuli/Faces/CF0016_1100.jpg","Stimuli/Faces/CF0016_1100.jpg",NA,NA,NA,NA,NA,0,13,13,17,1
NA,NA,"Stimuli/Faces/CF0008_1100.jpg","Stimuli/Faces/CF0033_1100.jpg",0,"d",1,1.3256,NA,NA,NA,NA,NA,83,"rand_face","rand_face","d","d",2,0,0.0591,0.0599,"2021-11-17_17h10.03.629","02_face_task_central","2020.2.4","Win32",60,1280,720,"","",NA,NA,NA,NA,NA,0,14,14,11,1
NA,NA,"Stimuli/Faces/CF0010_1100.jpg","Stimuli/Faces/CF0022_1100.jpg",0,"s",0,1.3806,NA,NA,NA,NA,NA,85,"rand_face","rand_face","d","d",2,0,0.0591,0.0599,"2021-11-17_17h10.03.629","02_face_task_central","2020.2.4","Win32",60,1280,720,"","",NA,NA,NA,NA,NA,0,15,15,13,1
NA,NA,"","",0,"s",1,1.6509,NA,NA,NA,NA,NA,91,"same_face","same_face","s","s",2,0,0.0591,0.0599,"2021-11-17_17h10.03.629","02_face_task_central","2020.2.4","Win32",60,1280,720,"Stimuli/Faces/CF0033_1100.jpg","Stimuli/Faces/CF0033_1100.jpg",NA,NA,NA,NA,NA,0,16,16,19,1
NA,NA,"Stimuli/Faces/CM0050_1100.jpg","Stimuli/Faces/CM0009_1100.jpg",0,"d",1,1.4266,NA,NA,NA,NA,NA,75,"rand_face","rand_face","d","d",2,0,0.0591,0.0599,"2021-11-17_17h10.03.629","02_face_task_central","2020.2.4","Win32",60,1280,720,"","",NA,NA,NA,NA,NA,0,17,17,3,1
NA,NA,"","",0,"s",1,4.4761,NA,NA,NA,NA,NA,98,"same_face","same_face","s","s",2,0,0.0591,0.0599,"2021-11-17_17h10.03.629","02_face_task_central","2020.2.4","Win32",60,1280,720,"Stimuli/Faces/CF0022_1100.jpg","Stimuli/Faces/CF0022_1100.jpg",NA,NA,NA,NA,NA,0,18,18,26,1
NA,NA,"Stimuli/Faces/CF0022_1100.jpg","Stimuli/Faces/CM0039_1100.jpg",0,"d",1,0.7659,NA,NA,NA,NA,NA,72,"rand_face","rand_face","d","d",2,0,0.0591,0.0599,"2021-11-17_17h10.03.629","02_face_task_central","2020.2.4","Win32",60,1280,720,"","",NA,NA,NA,NA,NA,0,19,19,0,1
NA,NA,"Stimuli/Faces/CM0007_1100.jpg","Stimuli/Faces/CM0048_1100.jpg",0,"d",1,0.9468,NA,NA,NA,NA,NA,78,"rand_face","rand_face","d","d",2,0,0.0591,0.0599,"2021-11-17_17h10.03.629","02_face_task_central","2020.2.4","Win32",60,1280,720,"","",NA,NA,NA,NA,NA,0,20,20,6,1
NA,NA,"","",0,"s",1,0.7008,NA,NA,NA,NA,NA,97,"same_face","same_face","s","s",2,0,0.0591,0.0599,"2021-11-17_17h10.03.629","02_face_task_central","2020.2.4","Win32",60,1280,720,"Stimuli/Faces/CM0009_1100.jpg","Stimuli/Faces/CM0009_1100.jpg",NA,NA,NA,NA,NA,0,21,21,25,1
NA,NA,"","",0,"s",1,3.0649,NA,NA,NA,NA,NA,92,"same_face","same_face","s","s",2,0,0.0591,0.0599,"2021-11-17_17h10.03.629","02_face_task_central","2020.2.4","Win32",60,1280,720,"Stimuli/Faces/CM0039_1100.jpg","Stimuli/Faces/CM0039_1100.jpg",NA,NA,NA,NA,NA,0,22,22,20,1
NA,NA,"Stimuli/Faces/CM0041_1100.jpg","Stimuli/Faces/CF0052_1100.jpg",0,"d",1,0.7932,NA,NA,NA,NA,NA,82,"rand_face","rand_face","d","d",2,0,0.0591,0.0599,"2021-11-17_17h10.03.629","02_face_task_central","2020.2.4","Win32",60,1280,720,"","",NA,NA,NA,NA,NA,0,23,23,10,1
NA,NA,"","",0,"s",1,0.8916,NA,NA,NA,NA,NA,96,"same_face","same_face","s","s",2,0,0.0591,0.0599,"2021-11-17_17h10.03.629","02_face_task_central","2020.2.4","Win32",60,1280,720,"Stimuli/Faces/CM0048_1100.jpg","Stimuli/Faces/CM0048_1100.jpg",NA,NA,NA,NA,NA,0,24,24,24,1
NA,NA,"","",0,"s",1,0.6803,NA,NA,NA,NA,NA,90,"same_face","same_face","s","s",2,0,0.0591,0.0599,"2021-11-17_17h10.03.629","02_face_task_central","2020.2.4","Win32",60,1280,720,"Stimuli/Faces/CF0052_1100.jpg","Stimuli/Faces/CF0052_1100.jpg",NA,NA,NA,NA,NA,0,25,25,18,1
NA,NA,"Stimuli/Faces/CF0040_1110.jpg","Stimuli/Faces/CF0031_1100.jpg",0,"s",0,0.8166,NA,NA,NA,NA,NA,87,"rand_face","rand_face","d","d",2,0,0.0591,0.0599,"2021-11-17_17h10.03.629","02_face_task_central","2020.2.4","Win32",60,1280,720,"","",NA,NA,NA,NA,NA,0,26,26,15,1
NA,NA,"Stimuli/Faces/CM0044_1100.jpg","Stimuli/Faces/CF0023_1100.jpg",0,"d",1,0.807,NA,NA,NA,NA,NA,73,"rand_face","rand_face","d","d",2,0,0.0591,0.0599,"2021-11-17_17h10.03.629","02_face_task_central","2020.2.4","Win32",60,1280,720,"","",NA,NA,NA,NA,NA,0,27,27,1,1
NA,NA,"Stimuli/Faces/CF0009_1100.jpg","Stimuli/Faces/CM0039_3300.jpg",0,"d",1,3.2039,NA,NA,NA,NA,NA,77,"rand_face","rand_face","d","d",2,0,0.0591,0.0599,"2021-11-17_17h10.03.629","02_face_task_central","2020.2.4","Win32",60,1280,720,"","",NA,NA,NA,NA,NA,0,28,28,5,1
NA,NA,"","",0,"s",1,0.9677,NA,NA,NA,NA,NA,94,"same_face","same_face","s","s",2,0,0.0591,0.0599,"2021-11-17_17h10.03.629","02_face_task_central","2020.2.4","Win32",60,1280,720,"Stimuli/Faces/CF0031_1100.jpg","Stimuli/Faces/CF0031_1100.jpg",NA,NA,NA,NA,NA,0,29,29,22,1
NA,NA,"","",0,"s",1,1.0487,NA,NA,NA,NA,NA,99,"same_face","same_face","s","s",2,0,0.0591,0.0599,"2021-11-17_17h10.03.629","02_face_task_central","2020.2.4","Win32",60,1280,720,"Stimuli/Faces/CF0023_1100.jpg","Stimuli/Faces/CF0023_1100.jpg",NA,NA,NA,NA,NA,0,30,30,27,1
NA,NA,"","",0,"s",1,0.7599,NA,NA,NA,NA,NA,93,"same_face","same_face","s","s",2,0,0.0591,0.0599,"2021-11-17_17h10.03.629","02_face_task_central","2020.2.4","Win32",60,1280,720,"Stimuli/Faces/CM0039_3300.jpg","Stimuli/Faces/CM0039_3300.jpg",NA,NA,NA,NA,NA,0,31,31,21,1
