"X.Scale","Y.Scale","image1","image2","corr_acc","xPosition","FW_resp.keys","FW_resp.corr","FW_resp.rt","word_loop_set1.thisRepN","word_loop_set1.thisTrialN","word_loop_set1.thisN","word_loop_set1.thisIndex","word_loop_set1.ran","trialID","imFile","imFile2","corr","diff","position","screen","x_scale","y_scale","date","expName","psychopyVersion","OS","frameRate","xResolution","yResolution","key_resp_3.keys","key_resp_3.rt","word_loop_set2.thisRepN","word_loop_set2.thisTrialN","word_loop_set2.thisN","word_loop_set2.thisIndex","word_loop_set2.ran","word_loop_set3.thisRepN","word_loop_set3.thisTrialN","word_loop_set3.thisN","word_loop_set3.thisIndex","word_loop_set3.ran"
0.0577,0.0573,"Stimuli/Words/word51.jpg","Stimuli/Words/word51.jpg","s",0,"s",1,2.0361,0,0,0,0,1,97,"Stimuli/Words/word16.jpg","Stimuli/Words/word15.jpg","d","third",2,0,0.0577,0.0573,"2021-11-26_14h12.05.164","01_word_task_central","2020.2.4","Win32",60,1366,768,"",NA,NA,NA,NA,NA,NA,NA,NA,NA,NA,NA
NA,NA,"Stimuli/Words/word56.jpg","Stimuli/Words/word55.jpg","d",0,"d",1,0.6703,0,1,1,1,1,96,"Stimuli/Words/word15.jpg","Stimuli/Words/word16.jpg","d","third",2,0,0.0577,0.0573,"2021-11-26_14h12.05.164","01_word_task_central","2020.2.4","Win32",60,1366,768,"",NA,NA,NA,NA,NA,NA,NA,NA,NA,NA,NA
NA,NA,"Stimuli/Words/word16.jpg","Stimuli/Words/word15.jpg","d",0,"d",1,0.8058,0,2,2,2,1,94,"Stimuli/Words/word13.jpg","Stimuli/Words/word14.jpg","d","third",2,0,0.0577,0.0573,"2021-11-26_14h12.05.164","01_word_task_central","2020.2.4","Win32",60,1366,768,"",NA,NA,NA,NA,NA,NA,NA,NA,NA,NA,NA
NA,NA,"Stimuli/Words/word10.jpg","Stimuli/Words/word10.jpg","s",0,"s",1,1.0879,0,3,3,3,1,33,"Stimuli/Words/word10.jpg","Stimuli/Words/word10.jpg","s","third",2,0,0.0577,0.0573,"2021-11-26_14h12.05.164","01_word_task_central","2020.2.4","Win32",60,1366,768,"",NA,NA,NA,NA,NA,NA,NA,NA,NA,NA,NA
NA,NA,"Stimuli/Words/word15.jpg","Stimuli/Words/word16.jpg","d",0,"d",1,1.4241,0,4,4,4,1,43,"Stimuli/Words/word20.jpg","Stimuli/Words/word20.jpg","s","third",2,0,0.0577,0.0573,"2021-11-26_14h12.05.164","01_word_task_central","2020.2.4","Win32",60,1366,768,"",NA,NA,NA,NA,NA,NA,NA,NA,NA,NA,NA
NA,NA,"Stimuli/Words/word31.jpg","Stimuli/Words/word31.jpg","s",0,"s",1,0.9333,0,5,5,5,1,51,"Stimuli/Words/word48.jpg","Stimuli/Words/word48.jpg","s","third",2,0,0.0577,0.0573,"2021-11-26_14h12.05.164","01_word_task_central","2020.2.4","Win32",60,1366,768,"",NA,NA,NA,NA,NA,NA,NA,NA,NA,NA,NA
NA,NA,"Stimuli/Words/word29.jpg","Stimuli/Words/word29.jpg","s",0,"s",1,0.6339,0,6,6,6,1,91,"Stimuli/Words/word10.jpg","Stimuli/Words/word09.jpg","d","third",2,0,0.0577,0.0573,"2021-11-26_14h12.05.164","01_word_task_central","2020.2.4","Win32",60,1366,768,"",NA,NA,NA,NA,NA,NA,NA,NA,NA,NA,NA
NA,NA,"Stimuli/Words/word13.jpg","Stimuli/Words/word14.jpg","d",0,"d",1,1.0618,0,7,7,7,1,69,"Stimuli/Words/word28.jpg","Stimuli/Words/word27.jpg","d","second",2,0,0.0577,0.0573,"2021-11-26_14h12.05.164","01_word_task_central","2020.2.4","Win32",60,1366,768,"",NA,NA,NA,NA,NA,NA,NA,NA,NA,NA,NA
NA,NA,"Stimuli/Words/word25.jpg","Stimuli/Words/word25.jpg","s",0,"s",1,0.5846,0,8,8,8,1,14,"Stimuli/Words/word31.jpg","Stimuli/Words/word31.jpg","s","second",2,0,0.0577,0.0573,"2021-11-26_14h12.05.164","01_word_task_central","2020.2.4","Win32",60,1366,768,"",NA,NA,NA,NA,NA,NA,NA,NA,NA,NA,NA
NA,NA,"Stimuli/Words/word35.jpg","Stimuli/Words/word35.jpg","s",0,"s",1,0.5846,0,9,9,9,1,54,"Stimuli/Words/word51.jpg","Stimuli/Words/word51.jpg","s","third",2,0,0.0577,0.0573,"2021-11-26_14h12.05.164","01_word_task_central","2020.2.4","Win32",60,1366,768,"",NA,NA,NA,NA,NA,NA,NA,NA,NA,NA,NA
NA,NA,"Stimuli/Words/word23.jpg","Stimuli/Words/word24.jpg","d",0,"d",1,0.8334,0,10,10,10,1,4,"Stimuli/Words/word21.jpg","Stimuli/Words/word21.jpg","s","second",2,0,0.0577,0.0573,"2021-11-26_14h12.05.164","01_word_task_central","2020.2.4","Win32",60,1366,768,"",NA,NA,NA,NA,NA,NA,NA,NA,NA,NA,NA
NA,NA,"Stimuli/Words/word24.jpg","Stimuli/Words/word23.jpg","d",0,"d",1,0.7548,0,11,11,11,1,8,"Stimuli/Words/word25.jpg","Stimuli/Words/word25.jpg","s","second",2,0,0.0577,0.0573,"2021-11-26_14h12.05.164","01_word_task_central","2020.2.4","Win32",60,1366,768,"",NA,NA,NA,NA,NA,NA,NA,NA,NA,NA,NA
NA,NA,"Stimuli/Words/word28.jpg","Stimuli/Words/word27.jpg","d",0,"d",1,0.987,0,12,12,12,1,30,"Stimuli/Words/word03.jpg","Stimuli/Words/word03.jpg","s","third",2,0,0.0577,0.0573,"2021-11-26_14h12.05.164","01_word_task_central","2020.2.4","Win32",60,1366,768,"",NA,NA,NA,NA,NA,NA,NA,NA,NA,NA,NA
NA,NA,"Stimuli/Words/word30.jpg","Stimuli/Words/word30.jpg","s",0,"s",1,0.6428,0,13,13,13,1,102,"Stimuli/Words/word41.jpg","Stimuli/Words/word42.jpg","d","third",2,0,0.0577,0.0573,"2021-11-26_14h12.05.164","01_word_task_central","2020.2.4","Win32",60,1366,768,"",NA,NA,NA,NA,NA,NA,NA,NA,NA,NA,NA
NA,NA,"Stimuli/Words/word33.jpg","Stimuli/Words/word34.jpg","d",0,"d",1,0.735,0,14,14,14,1,26,"Stimuli/Words/word55.jpg","Stimuli/Words/word55.jpg","s","second",2,0,0.0577,0.0573,"2021-11-26_14h12.05.164","01_word_task_central","2020.2.4","Win32",60,1366,768,"",NA,NA,NA,NA,NA,NA,NA,NA,NA,NA,NA
NA,NA,"Stimuli/Words/word13.jpg","Stimuli/Words/word13.jpg","s",0,"s",1,0.5522,0,15,15,15,1,100,"Stimuli/Words/word19.jpg","Stimuli/Words/word20.jpg","d","third",2,0,0.0577,0.0573,"2021-11-26_14h12.05.164","01_word_task_central","2020.2.4","Win32",60,1366,768,"",NA,NA,NA,NA,NA,NA,NA,NA,NA,NA,NA
NA,NA,"Stimuli/Words/word10.jpg","Stimuli/Words/word09.jpg","d",0,"d",1,0.8791,0,16,16,16,1,74,"Stimuli/Words/word33.jpg","Stimuli/Words/word34.jpg","d","second",2,0,0.0577,0.0573,"2021-11-26_14h12.05.164","01_word_task_central","2020.2.4","Win32",60,1366,768,"",NA,NA,NA,NA,NA,NA,NA,NA,NA,NA,NA
NA,NA,"Stimuli/Words/word48.jpg","Stimuli/Words/word48.jpg","s",0,"d",0,0.8572,0,17,17,17,1,85,"Stimuli/Words/word56.jpg","Stimuli/Words/word55.jpg","d","second",2,0,0.0577,0.0573,"2021-11-26_14h12.05.164","01_word_task_central","2020.2.4","Win32",60,1366,768,"",NA,NA,NA,NA,NA,NA,NA,NA,NA,NA,NA
NA,NA,"Stimuli/Words/word21.jpg","Stimuli/Words/word21.jpg","s",0,"s",1,0.5703,0,18,18,18,1,36,"Stimuli/Words/word13.jpg","Stimuli/Words/word13.jpg","s","third",2,0,0.0577,0.0573,"2021-11-26_14h12.05.164","01_word_task_central","2020.2.4","Win32",60,1366,768,"",NA,NA,NA,NA,NA,NA,NA,NA,NA,NA,NA
NA,NA,"Stimuli/Words/word19.jpg","Stimuli/Words/word20.jpg","d",0,"d",1,0.8008,0,19,19,19,1,44,"Stimuli/Words/word41.jpg","Stimuli/Words/word41.jpg","s","third",2,0,0.0577,0.0573,"2021-11-26_14h12.05.164","01_word_task_central","2020.2.4","Win32",60,1366,768,"",NA,NA,NA,NA,NA,NA,NA,NA,NA,NA,NA
NA,NA,"Stimuli/Words/word54.jpg","Stimuli/Words/word54.jpg","s",0,"d",0,0.8763,0,20,20,20,1,64,"Stimuli/Words/word23.jpg","Stimuli/Words/word24.jpg","d","second",2,0,0.0577,0.0573,"2021-11-26_14h12.05.164","01_word_task_central","2020.2.4","Win32",60,1366,768,"",NA,NA,NA,NA,NA,NA,NA,NA,NA,NA,NA
NA,NA,"Stimuli/Words/word55.jpg","Stimuli/Words/word56.jpg","d",0,"d",1,0.7065,0,21,21,21,1,12,"Stimuli/Words/word29.jpg","Stimuli/Words/word29.jpg","s","second",2,0,0.0577,0.0573,"2021-11-26_14h12.05.164","01_word_task_central","2020.2.4","Win32",60,1366,768,"",NA,NA,NA,NA,NA,NA,NA,NA,NA,NA,NA
NA,NA,"Stimuli/Words/word03.jpg","Stimuli/Words/word03.jpg","s",0,"s",1,0.8571,0,22,22,22,1,103,"Stimuli/Words/word42.jpg","Stimuli/Words/word41.jpg","d","third",2,0,0.0577,0.0573,"2021-11-26_14h12.05.164","01_word_task_central","2020.2.4","Win32",60,1366,768,"",NA,NA,NA,NA,NA,NA,NA,NA,NA,NA,NA
NA,NA,"Stimuli/Words/word20.jpg","Stimuli/Words/word20.jpg","s",0,"s",1,0.6337,0,23,23,23,1,59,"Stimuli/Words/word06.jpg","Stimuli/Words/word05.jpg","d","second",2,0,0.0577,0.0573,"2021-11-26_14h12.05.164","01_word_task_central","2020.2.4","Win32",60,1366,768,"",NA,NA,NA,NA,NA,NA,NA,NA,NA,NA,NA
NA,NA,"Stimuli/Words/word41.jpg","Stimuli/Words/word42.jpg","d",0,"d",1,0.7559,0,24,24,24,1,48,"Stimuli/Words/word45.jpg","Stimuli/Words/word45.jpg","s","third",2,0,0.0577,0.0573,"2021-11-26_14h12.05.164","01_word_task_central","2020.2.4","Win32",60,1366,768,"",NA,NA,NA,NA,NA,NA,NA,NA,NA,NA,NA
NA,NA,"Stimuli/Words/word55.jpg","Stimuli/Words/word55.jpg","s",0,"s",1,2.9685,0,25,25,25,1,84,"Stimuli/Words/word55.jpg","Stimuli/Words/word56.jpg","d","second",2,0,0.0577,0.0573,"2021-11-26_14h12.05.164","01_word_task_central","2020.2.4","Win32",60,1366,768,"",NA,NA,NA,NA,NA,NA,NA,NA,NA,NA,NA
NA,NA,"Stimuli/Words/word45.jpg","Stimuli/Words/word45.jpg","s",0,"s",1,0.5609,0,26,26,26,1,25,"Stimuli/Words/word54.jpg","Stimuli/Words/word54.jpg","s","second",2,0,0.0577,0.0573,"2021-11-26_14h12.05.164","01_word_task_central","2020.2.4","Win32",60,1366,768,"",NA,NA,NA,NA,NA,NA,NA,NA,NA,NA,NA
NA,NA,"Stimuli/Words/word41.jpg","Stimuli/Words/word41.jpg","s",0,"s",1,0.6333,0,27,27,27,1,18,"Stimuli/Words/word35.jpg","Stimuli/Words/word35.jpg","s","second",2,0,0.0577,0.0573,"2021-11-26_14h12.05.164","01_word_task_central","2020.2.4","Win32",60,1366,768,"",NA,NA,NA,NA,NA,NA,NA,NA,NA,NA,NA
NA,NA,"Stimuli/Words/word34.jpg","Stimuli/Words/word34.jpg","s",0,"s",1,1.2761,0,28,28,28,1,57,"Stimuli/Words/word58.jpg","Stimuli/Words/word58.jpg","s","third",2,0,0.0577,0.0573,"2021-11-26_14h12.05.164","01_word_task_central","2020.2.4","Win32",60,1366,768,"",NA,NA,NA,NA,NA,NA,NA,NA,NA,NA,NA
NA,NA,"Stimuli/Words/word42.jpg","Stimuli/Words/word41.jpg","d",0,"d",1,0.9536,0,29,29,29,1,17,"Stimuli/Words/word34.jpg","Stimuli/Words/word34.jpg","s","second",2,0,0.0577,0.0573,"2021-11-26_14h12.05.164","01_word_task_central","2020.2.4","Win32",60,1366,768,"",NA,NA,NA,NA,NA,NA,NA,NA,NA,NA,NA
NA,NA,"Stimuli/Words/word58.jpg","Stimuli/Words/word58.jpg","s",0,"s",1,0.9064,0,30,30,30,1,13,"Stimuli/Words/word30.jpg","Stimuli/Words/word30.jpg","s","second",2,0,0.0577,0.0573,"2021-11-26_14h12.05.164","01_word_task_central","2020.2.4","Win32",60,1366,768,"",NA,NA,NA,NA,NA,NA,NA,NA,NA,NA,NA
NA,NA,"Stimuli/Words/word06.jpg","Stimuli/Words/word05.jpg","d",0,"d",1,0.8376,0,31,31,31,1,65,"Stimuli/Words/word24.jpg","Stimuli/Words/word23.jpg","d","second",2,0,0.0577,0.0573,"2021-11-26_14h12.05.164","01_word_task_central","2020.2.4","Win32",60,1366,768,"",NA,NA,NA,NA,NA,NA,NA,NA,NA,NA,NA
NA,NA,"Stimuli/Words/word57.jpg","Stimuli/Words/word58.jpg","d",0,"d",1,1.8829,NA,NA,NA,NA,NA,23,"Stimuli/Words/word40.jpg","Stimuli/Words/word40.jpg","s","second",2,0,0.0577,0.0573,"2021-11-26_14h12.05.164","01_word_task_central","2020.2.4","Win32",60,1366,768,"space",17.5005,0,0,0,0,1,NA,NA,NA,NA,NA
NA,NA,"Stimuli/Words/word30.jpg","Stimuli/Words/word29.jpg","d",0,"d",1,0.676,NA,NA,NA,NA,NA,16,"Stimuli/Words/word33.jpg","Stimuli/Words/word33.jpg","s","second",2,0,0.0577,0.0573,"2021-11-26_14h12.05.164","01_word_task_central","2020.2.4","Win32",60,1366,768,"",NA,0,1,1,1,1,NA,NA,NA,NA,NA
NA,NA,"Stimuli/Words/word19.jpg","Stimuli/Words/word19.jpg","s",0,"d",0,0.658,NA,NA,NA,NA,NA,89,"Stimuli/Words/word04.jpg","Stimuli/Words/word03.jpg","d","third",2,0,0.0577,0.0573,"2021-11-26_14h12.05.164","01_word_task_central","2020.2.4","Win32",60,1366,768,"",NA,0,2,2,2,1,NA,NA,NA,NA,NA
NA,NA,"Stimuli/Words/word26.jpg","Stimuli/Words/word25.jpg","d",0,"s",0,0.9831,NA,NA,NA,NA,NA,88,"Stimuli/Words/word03.jpg","Stimuli/Words/word04.jpg","d","third",2,0,0.0577,0.0573,"2021-11-26_14h12.05.164","01_word_task_central","2020.2.4","Win32",60,1366,768,"",NA,0,3,3,3,1,NA,NA,NA,NA,NA
NA,NA,"Stimuli/Words/word14.jpg","Stimuli/Words/word13.jpg","d",0,"s",0,1.8903,NA,NA,NA,NA,NA,90,"Stimuli/Words/word09.jpg","Stimuli/Words/word10.jpg","d","third",2,0,0.0577,0.0573,"2021-11-26_14h12.05.164","01_word_task_central","2020.2.4","Win32",60,1366,768,"",NA,0,4,4,4,1,NA,NA,NA,NA,NA
NA,NA,"Stimuli/Words/word07.jpg","Stimuli/Words/word08.jpg","d",0,"d",1,0.6836,NA,NA,NA,NA,NA,92,"Stimuli/Words/word11.jpg","Stimuli/Words/word12.jpg","d","third",2,0,0.0577,0.0573,"2021-11-26_14h12.05.164","01_word_task_central","2020.2.4","Win32",60,1366,768,"",NA,0,5,5,5,1,NA,NA,NA,NA,NA
NA,NA,"Stimuli/Words/word36.jpg","Stimuli/Words/word35.jpg","d",0,"d",1,1.6342,NA,NA,NA,NA,NA,67,"Stimuli/Words/word26.jpg","Stimuli/Words/word25.jpg","d","second",2,0,0.0577,0.0573,"2021-11-26_14h12.05.164","01_word_task_central","2020.2.4","Win32",60,1366,768,"",NA,0,6,6,6,1,NA,NA,NA,NA,NA
NA,NA,"Stimuli/Words/word11.jpg","Stimuli/Words/word12.jpg","d",0,"s",0,1.0078,NA,NA,NA,NA,NA,10,"Stimuli/Words/word27.jpg","Stimuli/Words/word27.jpg","s","second",2,0,0.0577,0.0573,"2021-11-26_14h12.05.164","01_word_task_central","2020.2.4","Win32",60,1366,768,"",NA,0,7,7,7,1,NA,NA,NA,NA,NA
NA,NA,"Stimuli/Words/word25.jpg","Stimuli/Words/word26.jpg","d",0,"d",1,0.604,NA,NA,NA,NA,NA,86,"Stimuli/Words/word01.jpg","Stimuli/Words/word02.jpg","d","third",2,0,0.0577,0.0573,"2021-11-26_14h12.05.164","01_word_task_central","2020.2.4","Win32",60,1366,768,"",NA,0,8,8,8,1,NA,NA,NA,NA,NA
NA,NA,"Stimuli/Words/word35.jpg","Stimuli/Words/word36.jpg","d",0,"d",1,1.4296,NA,NA,NA,NA,NA,76,"Stimuli/Words/word35.jpg","Stimuli/Words/word36.jpg","d","second",2,0,0.0577,0.0573,"2021-11-26_14h12.05.164","01_word_task_central","2020.2.4","Win32",60,1366,768,"",NA,0,9,9,9,1,NA,NA,NA,NA,NA
NA,NA,"Stimuli/Words/word40.jpg","Stimuli/Words/word40.jpg","s",0,"s",1,0.8828,NA,NA,NA,NA,NA,95,"Stimuli/Words/word14.jpg","Stimuli/Words/word13.jpg","d","third",2,0,0.0577,0.0573,"2021-11-26_14h12.05.164","01_word_task_central","2020.2.4","Win32",60,1366,768,"",NA,0,10,10,10,1,NA,NA,NA,NA,NA
NA,NA,"Stimuli/Words/word27.jpg","Stimuli/Words/word27.jpg","s",0,"s",1,0.6518,NA,NA,NA,NA,NA,71,"Stimuli/Words/word30.jpg","Stimuli/Words/word29.jpg","d","second",2,0,0.0577,0.0573,"2021-11-26_14h12.05.164","01_word_task_central","2020.2.4","Win32",60,1366,768,"",NA,0,11,11,11,1,NA,NA,NA,NA,NA
NA,NA,"Stimuli/Words/word50.jpg","Stimuli/Words/word50.jpg","s",0,"s",1,0.6538,NA,NA,NA,NA,NA,110,"Stimuli/Words/word49.jpg","Stimuli/Words/word50.jpg","d","third",2,0,0.0577,0.0573,"2021-11-26_14h12.05.164","01_word_task_central","2020.2.4","Win32",60,1366,768,"",NA,0,12,12,12,1,NA,NA,NA,NA,NA
NA,NA,"Stimuli/Words/word37.jpg","Stimuli/Words/word38.jpg","d",0,"d",1,4.6615,NA,NA,NA,NA,NA,70,"Stimuli/Words/word29.jpg","Stimuli/Words/word30.jpg","d","second",2,0,0.0577,0.0573,"2021-11-26_14h12.05.164","01_word_task_central","2020.2.4","Win32",60,1366,768,"",NA,0,13,13,13,1,NA,NA,NA,NA,NA
NA,NA,"Stimuli/Words/word04.jpg","Stimuli/Words/word03.jpg","d",0,"d",1,1.9068,NA,NA,NA,NA,NA,53,"Stimuli/Words/word50.jpg","Stimuli/Words/word50.jpg","s","third",2,0,0.0577,0.0573,"2021-11-26_14h12.05.164","01_word_task_central","2020.2.4","Win32",60,1366,768,"",NA,0,14,14,14,1,NA,NA,NA,NA,NA
NA,NA,"Stimuli/Words/word07.jpg","Stimuli/Words/word07.jpg","s",0,"s",1,0.9033,NA,NA,NA,NA,NA,60,"Stimuli/Words/word07.jpg","Stimuli/Words/word08.jpg","d","second",2,0,0.0577,0.0573,"2021-11-26_14h12.05.164","01_word_task_central","2020.2.4","Win32",60,1366,768,"",NA,0,15,15,15,1,NA,NA,NA,NA,NA
NA,NA,"Stimuli/Words/word46.jpg","Stimuli/Words/word46.jpg","s",0,"s",1,1.6592,NA,NA,NA,NA,NA,29,"Stimuli/Words/word02.jpg","Stimuli/Words/word02.jpg","s","third",2,0,0.0577,0.0573,"2021-11-26_14h12.05.164","01_word_task_central","2020.2.4","Win32",60,1366,768,"",NA,0,16,16,16,1,NA,NA,NA,NA,NA
NA,NA,"Stimuli/Words/word01.jpg","Stimuli/Words/word02.jpg","d",0,"d",1,0.9022,NA,NA,NA,NA,NA,34,"Stimuli/Words/word11.jpg","Stimuli/Words/word11.jpg","s","third",2,0,0.0577,0.0573,"2021-11-26_14h12.05.164","01_word_task_central","2020.2.4","Win32",60,1366,768,"",NA,0,17,17,17,1,NA,NA,NA,NA,NA
NA,NA,"Stimuli/Words/word34.jpg","Stimuli/Words/word33.jpg","d",0,"s",0,0.9045,NA,NA,NA,NA,NA,24,"Stimuli/Words/word53.jpg","Stimuli/Words/word53.jpg","s","second",2,0,0.0577,0.0573,"2021-11-26_14h12.05.164","01_word_task_central","2020.2.4","Win32",60,1366,768,"",NA,0,18,18,18,1,NA,NA,NA,NA,NA
NA,NA,"Stimuli/Words/word02.jpg","Stimuli/Words/word02.jpg","s",0,"s",1,1.7017,NA,NA,NA,NA,NA,77,"Stimuli/Words/word36.jpg","Stimuli/Words/word35.jpg","d","second",2,0,0.0577,0.0573,"2021-11-26_14h12.05.164","01_word_task_central","2020.2.4","Win32",60,1366,768,"",NA,0,19,19,19,1,NA,NA,NA,NA,NA
NA,NA,"Stimuli/Words/word49.jpg","Stimuli/Words/word50.jpg","d",0,"d",1,1.3616,NA,NA,NA,NA,NA,114,"Stimuli/Words/word57.jpg","Stimuli/Words/word58.jpg","d","third",2,0,0.0577,0.0573,"2021-11-26_14h12.05.164","01_word_task_central","2020.2.4","Win32",60,1366,768,"",NA,0,20,20,20,1,NA,NA,NA,NA,NA
NA,NA,"Stimuli/Words/word33.jpg","Stimuli/Words/word33.jpg","s",0,"s",1,0.9344,NA,NA,NA,NA,NA,2,"Stimuli/Words/word07.jpg","Stimuli/Words/word07.jpg","s","second",2,0,0.0577,0.0573,"2021-11-26_14h12.05.164","01_word_task_central","2020.2.4","Win32",60,1366,768,"",NA,0,21,21,21,1,NA,NA,NA,NA,NA
NA,NA,"Stimuli/Words/word53.jpg","Stimuli/Words/word53.jpg","s",0,"s",1,0.9976,NA,NA,NA,NA,NA,50,"Stimuli/Words/word47.jpg","Stimuli/Words/word47.jpg","s","third",2,0,0.0577,0.0573,"2021-11-26_14h12.05.164","01_word_task_central","2020.2.4","Win32",60,1366,768,"",NA,0,22,22,22,1,NA,NA,NA,NA,NA
NA,NA,"Stimuli/Words/word11.jpg","Stimuli/Words/word11.jpg","s",0,"s",1,0.627,NA,NA,NA,NA,NA,38,"Stimuli/Words/word15.jpg","Stimuli/Words/word15.jpg","s","third",2,0,0.0577,0.0573,"2021-11-26_14h12.05.164","01_word_task_central","2020.2.4","Win32",60,1366,768,"",NA,0,23,23,23,1,NA,NA,NA,NA,NA
NA,NA,"Stimuli/Words/word47.jpg","Stimuli/Words/word47.jpg","s",0,"s",1,0.8216,NA,NA,NA,NA,NA,22,"Stimuli/Words/word39.jpg","Stimuli/Words/word39.jpg","s","second",2,0,0.0577,0.0573,"2021-11-26_14h12.05.164","01_word_task_central","2020.2.4","Win32",60,1366,768,"",NA,0,24,24,24,1,NA,NA,NA,NA,NA
NA,NA,"Stimuli/Words/word28.jpg","Stimuli/Words/word28.jpg","s",0,"s",1,1.2557,NA,NA,NA,NA,NA,37,"Stimuli/Words/word14.jpg","Stimuli/Words/word14.jpg","s","third",2,0,0.0577,0.0573,"2021-11-26_14h12.05.164","01_word_task_central","2020.2.4","Win32",60,1366,768,"",NA,0,25,25,25,1,NA,NA,NA,NA,NA
NA,NA,"Stimuli/Words/word09.jpg","Stimuli/Words/word10.jpg","d",0,"d",1,1.455,NA,NA,NA,NA,NA,11,"Stimuli/Words/word28.jpg","Stimuli/Words/word28.jpg","s","second",2,0,0.0577,0.0573,"2021-11-26_14h12.05.164","01_word_task_central","2020.2.4","Win32",60,1366,768,"",NA,0,26,26,26,1,NA,NA,NA,NA,NA
NA,NA,"Stimuli/Words/word29.jpg","Stimuli/Words/word30.jpg","d",0,"d",1,0.7096,NA,NA,NA,NA,NA,42,"Stimuli/Words/word19.jpg","Stimuli/Words/word19.jpg","s","third",2,0,0.0577,0.0573,"2021-11-26_14h12.05.164","01_word_task_central","2020.2.4","Win32",60,1366,768,"",NA,0,27,27,27,1,NA,NA,NA,NA,NA
NA,NA,"Stimuli/Words/word03.jpg","Stimuli/Words/word04.jpg","d",0,"d",1,1.7576,NA,NA,NA,NA,NA,78,"Stimuli/Words/word37.jpg","Stimuli/Words/word38.jpg","d","second",2,0,0.0577,0.0573,"2021-11-26_14h12.05.164","01_word_task_central","2020.2.4","Win32",60,1366,768,"",NA,0,28,28,28,1,NA,NA,NA,NA,NA
NA,NA,"Stimuli/Words/word14.jpg","Stimuli/Words/word14.jpg","s",0,"s",1,2.5609,NA,NA,NA,NA,NA,66,"Stimuli/Words/word25.jpg","Stimuli/Words/word26.jpg","d","second",2,0,0.0577,0.0573,"2021-11-26_14h12.05.164","01_word_task_central","2020.2.4","Win32",60,1366,768,"",NA,0,29,29,29,1,NA,NA,NA,NA,NA
NA,NA,"Stimuli/Words/word39.jpg","Stimuli/Words/word39.jpg","s",0,"s",1,2.2759,NA,NA,NA,NA,NA,75,"Stimuli/Words/word34.jpg","Stimuli/Words/word33.jpg","d","second",2,0,0.0577,0.0573,"2021-11-26_14h12.05.164","01_word_task_central","2020.2.4","Win32",60,1366,768,"",NA,0,30,30,30,1,NA,NA,NA,NA,NA
NA,NA,"Stimuli/Words/word15.jpg","Stimuli/Words/word15.jpg","s",0,"s",1,0.7072,NA,NA,NA,NA,NA,49,"Stimuli/Words/word46.jpg","Stimuli/Words/word46.jpg","s","third",2,0,0.0577,0.0573,"2021-11-26_14h12.05.164","01_word_task_central","2020.2.4","Win32",60,1366,768,"",NA,0,31,31,31,1,NA,NA,NA,NA,NA
NA,NA,"Stimuli/Words/word58.jpg","Stimuli/Words/word57.jpg","d",0,"d",1,0.8372,NA,NA,NA,NA,NA,5,"Stimuli/Words/word22.jpg","Stimuli/Words/word22.jpg","s","second",2,0,0.0577,0.0573,"2021-11-26_14h12.05.164","01_word_task_central","2020.2.4","Win32",60,1366,768,"space",19.0432,NA,NA,NA,NA,NA,0,0,0,0,1
NA,NA,"Stimuli/Words/word22.jpg","Stimuli/Words/word22.jpg","s",0,"s",1,0.8289,NA,NA,NA,NA,NA,0,"Stimuli/Words/word05.jpg","Stimuli/Words/word05.jpg","s","second",2,0,0.0577,0.0573,"2021-11-26_14h12.05.164","01_word_task_central","2020.2.4","Win32",60,1366,768,"",NA,NA,NA,NA,NA,NA,0,1,1,1,1
NA,NA,"Stimuli/Words/word26.jpg","Stimuli/Words/word26.jpg","s",0,"s",1,0.7961,NA,NA,NA,NA,NA,28,"Stimuli/Words/word01.jpg","Stimuli/Words/word01.jpg","s","third",2,0,0.0577,0.0573,"2021-11-26_14h12.05.164","01_word_task_central","2020.2.4","Win32",60,1366,768,"",NA,NA,NA,NA,NA,NA,0,2,2,2,1
NA,NA,"Stimuli/Words/word20.jpg","Stimuli/Words/word19.jpg","d",0,"d",1,0.9883,NA,NA,NA,NA,NA,62,"Stimuli/Words/word21.jpg","Stimuli/Words/word22.jpg","d","second",2,0,0.0577,0.0573,"2021-11-26_14h12.05.164","01_word_task_central","2020.2.4","Win32",60,1366,768,"",NA,NA,NA,NA,NA,NA,0,3,3,3,1
NA,NA,"Stimuli/Words/word56.jpg","Stimuli/Words/word56.jpg","s",0,"s",1,1.0736,NA,NA,NA,NA,NA,73,"Stimuli/Words/word32.jpg","Stimuli/Words/word31.jpg","d","second",2,0,0.0577,0.0573,"2021-11-26_14h12.05.164","01_word_task_central","2020.2.4","Win32",60,1366,768,"",NA,NA,NA,NA,NA,NA,0,4,4,4,1
NA,NA,"Stimuli/Words/word24.jpg","Stimuli/Words/word24.jpg","s",0,"s",1,0.9792,NA,NA,NA,NA,NA,45,"Stimuli/Words/word42.jpg","Stimuli/Words/word42.jpg","s","third",2,0,0.0577,0.0573,"2021-11-26_14h12.05.164","01_word_task_central","2020.2.4","Win32",60,1366,768,"",NA,NA,NA,NA,NA,NA,0,5,5,5,1
NA,NA,"Stimuli/Words/word42.jpg","Stimuli/Words/word42.jpg","s",0,"s",1,1.2464,NA,NA,NA,NA,NA,32,"Stimuli/Words/word09.jpg","Stimuli/Words/word09.jpg","s","third",2,0,0.0577,0.0573,"2021-11-26_14h12.05.164","01_word_task_central","2020.2.4","Win32",60,1366,768,"",NA,NA,NA,NA,NA,NA,0,6,6,6,1
NA,NA,"Stimuli/Words/word40.jpg","Stimuli/Words/word39.jpg","d",0,"d",1,0.6877,NA,NA,NA,NA,NA,6,"Stimuli/Words/word23.jpg","Stimuli/Words/word23.jpg","s","second",2,0,0.0577,0.0573,"2021-11-26_14h12.05.164","01_word_task_central","2020.2.4","Win32",60,1366,768,"",NA,NA,NA,NA,NA,NA,0,7,7,7,1
NA,NA,"Stimuli/Words/word43.jpg","Stimuli/Words/word44.jpg","d",0,"d",1,1.2761,NA,NA,NA,NA,NA,98,"Stimuli/Words/word17.jpg","Stimuli/Words/word18.jpg","d","third",2,0,0.0577,0.0573,"2021-11-26_14h12.05.164","01_word_task_central","2020.2.4","Win32",60,1366,768,"",NA,NA,NA,NA,NA,NA,0,8,8,8,1
NA,NA,"Stimuli/Words/word31.jpg","Stimuli/Words/word32.jpg","d",0,"d",1,1.7576,NA,NA,NA,NA,NA,112,"Stimuli/Words/word51.jpg","Stimuli/Words/word52.jpg","d","third",2,0,0.0577,0.0573,"2021-11-26_14h12.05.164","01_word_task_central","2020.2.4","Win32",60,1366,768,"",NA,NA,NA,NA,NA,NA,0,9,9,9,1
NA,NA,"Stimuli/Words/word38.jpg","Stimuli/Words/word38.jpg","s",0,"s",1,1.1233,NA,NA,NA,NA,NA,93,"Stimuli/Words/word12.jpg","Stimuli/Words/word11.jpg","d","third",2,0,0.0577,0.0573,"2021-11-26_14h12.05.164","01_word_task_central","2020.2.4","Win32",60,1366,768,"",NA,NA,NA,NA,NA,NA,0,10,10,10,1
NA,NA,"Stimuli/Words/word05.jpg","Stimuli/Words/word05.jpg","s",0,"s",1,0.6335,NA,NA,NA,NA,NA,19,"Stimuli/Words/word36.jpg","Stimuli/Words/word36.jpg","s","second",2,0,0.0577,0.0573,"2021-11-26_14h12.05.164","01_word_task_central","2020.2.4","Win32",60,1366,768,"",NA,NA,NA,NA,NA,NA,0,11,11,11,1
NA,NA,"Stimuli/Words/word27.jpg","Stimuli/Words/word28.jpg","d",0,"d",1,0.7713,NA,NA,NA,NA,NA,115,"Stimuli/Words/word58.jpg","Stimuli/Words/word57.jpg","d","third",2,0,0.0577,0.0573,"2021-11-26_14h12.05.164","01_word_task_central","2020.2.4","Win32",60,1366,768,"",NA,NA,NA,NA,NA,NA,0,12,12,12,1
NA,NA,"Stimuli/Words/word39.jpg","Stimuli/Words/word40.jpg","d",0,"d",1,0.8545,NA,NA,NA,NA,NA,47,"Stimuli/Words/word44.jpg","Stimuli/Words/word44.jpg","s","third",2,0,0.0577,0.0573,"2021-11-26_14h12.05.164","01_word_task_central","2020.2.4","Win32",60,1366,768,"",NA,NA,NA,NA,NA,NA,0,13,13,13,1
NA,NA,"Stimuli/Words/word50.jpg","Stimuli/Words/word49.jpg","d",0,"s",0,1.1054,NA,NA,NA,NA,NA,72,"Stimuli/Words/word31.jpg","Stimuli/Words/word32.jpg","d","second",2,0,0.0577,0.0573,"2021-11-26_14h12.05.164","01_word_task_central","2020.2.4","Win32",60,1366,768,"",NA,NA,NA,NA,NA,NA,0,14,14,14,1
NA,NA,"Stimuli/Words/word21.jpg","Stimuli/Words/word22.jpg","d",0,"d",1,1.4802,NA,NA,NA,NA,NA,80,"Stimuli/Words/word39.jpg","Stimuli/Words/word40.jpg","d","second",2,0,0.0577,0.0573,"2021-11-26_14h12.05.164","01_word_task_central","2020.2.4","Win32",60,1366,768,"",NA,NA,NA,NA,NA,NA,0,15,15,15,1
NA,NA,"Stimuli/Words/word49.jpg","Stimuli/Words/word49.jpg","s",0,"d",0,1.5041,NA,NA,NA,NA,NA,7,"Stimuli/Words/word24.jpg","Stimuli/Words/word24.jpg","s","second",2,0,0.0577,0.0573,"2021-11-26_14h12.05.164","01_word_task_central","2020.2.4","Win32",60,1366,768,"",NA,NA,NA,NA,NA,NA,0,16,16,16,1
NA,NA,"Stimuli/Words/word23.jpg","Stimuli/Words/word23.jpg","s",0,"s",1,1.2359,NA,NA,NA,NA,NA,108,"Stimuli/Words/word47.jpg","Stimuli/Words/word48.jpg","d","third",2,0,0.0577,0.0573,"2021-11-26_14h12.05.164","01_word_task_central","2020.2.4","Win32",60,1366,768,"",NA,NA,NA,NA,NA,NA,0,17,17,17,1
NA,NA,"Stimuli/Words/word53.jpg","Stimuli/Words/word54.jpg","d",0,"d",1,0.9563,NA,NA,NA,NA,NA,87,"Stimuli/Words/word02.jpg","Stimuli/Words/word01.jpg","d","third",2,0,0.0577,0.0573,"2021-11-26_14h12.05.164","01_word_task_central","2020.2.4","Win32",60,1366,768,"",NA,NA,NA,NA,NA,NA,0,18,18,18,1
NA,NA,"Stimuli/Words/word17.jpg","Stimuli/Words/word17.jpg","s",0,"s",1,1.1234,NA,NA,NA,NA,NA,52,"Stimuli/Words/word49.jpg","Stimuli/Words/word49.jpg","s","third",2,0,0.0577,0.0573,"2021-11-26_14h12.05.164","01_word_task_central","2020.2.4","Win32",60,1366,768,"",NA,NA,NA,NA,NA,NA,0,19,19,19,1
NA,NA,"Stimuli/Words/word17.jpg","Stimuli/Words/word18.jpg","d",0,"d",1,0.7523,NA,NA,NA,NA,NA,81,"Stimuli/Words/word40.jpg","Stimuli/Words/word39.jpg","d","second",2,0,0.0577,0.0573,"2021-11-26_14h12.05.164","01_word_task_central","2020.2.4","Win32",60,1366,768,"",NA,NA,NA,NA,NA,NA,0,20,20,20,1
NA,NA,"Stimuli/Words/word43.jpg","Stimuli/Words/word43.jpg","s",0,"s",1,1.056,NA,NA,NA,NA,NA,58,"Stimuli/Words/word05.jpg","Stimuli/Words/word06.jpg","d","second",2,0,0.0577,0.0573,"2021-11-26_14h12.05.164","01_word_task_central","2020.2.4","Win32",60,1366,768,"",NA,NA,NA,NA,NA,NA,0,21,21,21,1
NA,NA,"Stimuli/Words/word51.jpg","Stimuli/Words/word52.jpg","d",0,"d",1,1.8529,NA,NA,NA,NA,NA,27,"Stimuli/Words/word56.jpg","Stimuli/Words/word56.jpg","s","second",2,0,0.0577,0.0573,"2021-11-26_14h12.05.164","01_word_task_central","2020.2.4","Win32",60,1366,768,"",NA,NA,NA,NA,NA,NA,0,22,22,22,1
NA,NA,"Stimuli/Words/word47.jpg","Stimuli/Words/word48.jpg","d",0,"d",1,0.9029,NA,NA,NA,NA,NA,101,"Stimuli/Words/word20.jpg","Stimuli/Words/word19.jpg","d","third",2,0,0.0577,0.0573,"2021-11-26_14h12.05.164","01_word_task_central","2020.2.4","Win32",60,1366,768,"",NA,NA,NA,NA,NA,NA,0,23,23,23,1
NA,NA,"Stimuli/Words/word09.jpg","Stimuli/Words/word09.jpg","s",0,"s",1,0.7542,NA,NA,NA,NA,NA,68,"Stimuli/Words/word27.jpg","Stimuli/Words/word28.jpg","d","second",2,0,0.0577,0.0573,"2021-11-26_14h12.05.164","01_word_task_central","2020.2.4","Win32",60,1366,768,"",NA,NA,NA,NA,NA,NA,0,24,24,24,1
NA,NA,"Stimuli/Words/word36.jpg","Stimuli/Words/word36.jpg","s",0,"s",1,2.3406,NA,NA,NA,NA,NA,21,"Stimuli/Words/word38.jpg","Stimuli/Words/word38.jpg","s","second",2,0,0.0577,0.0573,"2021-11-26_14h12.05.164","01_word_task_central","2020.2.4","Win32",60,1366,768,"",NA,NA,NA,NA,NA,NA,0,25,25,25,1
NA,NA,"Stimuli/Words/word32.jpg","Stimuli/Words/word31.jpg","d",0,"d",1,0.8346,NA,NA,NA,NA,NA,46,"Stimuli/Words/word43.jpg","Stimuli/Words/word43.jpg","s","third",2,0,0.0577,0.0573,"2021-11-26_14h12.05.164","01_word_task_central","2020.2.4","Win32",60,1366,768,"",NA,NA,NA,NA,NA,NA,0,26,26,26,1
NA,NA,"Stimuli/Words/word01.jpg","Stimuli/Words/word01.jpg","s",0,"s",1,1.0498,NA,NA,NA,NA,NA,104,"Stimuli/Words/word43.jpg","Stimuli/Words/word44.jpg","d","third",2,0,0.0577,0.0573,"2021-11-26_14h12.05.164","01_word_task_central","2020.2.4","Win32",60,1366,768,"",NA,NA,NA,NA,NA,NA,0,27,27,27,1
NA,NA,"Stimuli/Words/word02.jpg","Stimuli/Words/word01.jpg","d",0,"d",1,1.1314,NA,NA,NA,NA,NA,40,"Stimuli/Words/word17.jpg","Stimuli/Words/word17.jpg","s","third",2,0,0.0577,0.0573,"2021-11-26_14h12.05.164","01_word_task_central","2020.2.4","Win32",60,1366,768,"",NA,NA,NA,NA,NA,NA,0,28,28,28,1
NA,NA,"Stimuli/Words/word05.jpg","Stimuli/Words/word06.jpg","d",0,"s",0,1.11,NA,NA,NA,NA,NA,9,"Stimuli/Words/word26.jpg","Stimuli/Words/word26.jpg","s","second",2,0,0.0577,0.0573,"2021-11-26_14h12.05.164","01_word_task_central","2020.2.4","Win32",60,1366,768,"",NA,NA,NA,NA,NA,NA,0,29,29,29,1
NA,NA,"Stimuli/Words/word12.jpg","Stimuli/Words/word11.jpg","d",0,"d",1,1.2872,NA,NA,NA,NA,NA,82,"Stimuli/Words/word53.jpg","Stimuli/Words/word54.jpg","d","second",2,0,0.0577,0.0573,"2021-11-26_14h12.05.164","01_word_task_central","2020.2.4","Win32",60,1366,768,"",NA,NA,NA,NA,NA,NA,0,30,30,30,1
NA,NA,"Stimuli/Words/word44.jpg","Stimuli/Words/word44.jpg","s",0,"s",1,0.9279,NA,NA,NA,NA,NA,111,"Stimuli/Words/word50.jpg","Stimuli/Words/word49.jpg","d","third",2,0,0.0577,0.0573,"2021-11-26_14h12.05.164","01_word_task_central","2020.2.4","Win32",60,1366,768,"",NA,NA,NA,NA,NA,NA,0,31,31,31,1
NA,NA,"","","",NA,"",NA,NA,NA,NA,NA,NA,NA,NA,"","","","",2,0,0.0577,0.0573,"2021-11-26_14h12.05.164","01_word_task_central","2020.2.4","Win32",60,1366,768,"space",10.1432,NA,NA,NA,NA,NA,NA,NA,NA,NA,NA
