"X.Scale","Y.Scale","image1","image2","corr_acc","xPosition","FW_resp.keys","FW_resp.corr","FW_resp.rt","word_loop_set1.thisRepN","word_loop_set1.thisTrialN","word_loop_set1.thisN","word_loop_set1.thisIndex","word_loop_set1.ran","trialID","imFile","imFile2","corr","diff","position","screen","x_scale","y_scale","date","expName","psychopyVersion","OS","frameRate","xResolution","yResolution","key_resp_3.keys","key_resp_3.rt","word_loop_set2.thisRepN","word_loop_set2.thisTrialN","word_loop_set2.thisN","word_loop_set2.thisIndex","word_loop_set2.ran","word_loop_set3.thisRepN","word_loop_set3.thisTrialN","word_loop_set3.thisN","word_loop_set3.thisIndex","word_loop_set3.ran"
0.058,0.0582,"Stimuli/Words/word46.jpg","Stimuli/Words/word45.jpg","d",0,"d",1,1.7834,0,0,0,0,1,64,"Stimuli/Words/word23.jpg","Stimuli/Words/word24.jpg","d","second",2,0,0.058,0.0582,"2021-12-13_16h06.00.378","01_word_task_central","2020.2.4","Win32",60,1280,720,"",NA,NA,NA,NA,NA,NA,NA,NA,NA,NA,NA
NA,NA,"Stimuli/Words/word11.jpg","Stimuli/Words/word11.jpg","s",0,"s",1,0.9572,0,1,1,1,1,85,"Stimuli/Words/word56.jpg","Stimuli/Words/word55.jpg","d","second",2,0,0.058,0.0582,"2021-12-13_16h06.00.378","01_word_task_central","2020.2.4","Win32",60,1280,720,"",NA,NA,NA,NA,NA,NA,NA,NA,NA,NA,NA
NA,NA,"Stimuli/Words/word58.jpg","Stimuli/Words/word57.jpg","d",0,"d",1,1.0465,0,2,2,2,1,31,"Stimuli/Words/word04.jpg","Stimuli/Words/word04.jpg","s","third",2,0,0.058,0.0582,"2021-12-13_16h06.00.378","01_word_task_central","2020.2.4","Win32",60,1280,720,"",NA,NA,NA,NA,NA,NA,NA,NA,NA,NA,NA
NA,NA,"Stimuli/Words/word04.jpg","Stimuli/Words/word04.jpg","s",0,"s",1,1.9998,0,3,3,3,1,28,"Stimuli/Words/word01.jpg","Stimuli/Words/word01.jpg","s","third",2,0,0.058,0.0582,"2021-12-13_16h06.00.378","01_word_task_central","2020.2.4","Win32",60,1280,720,"",NA,NA,NA,NA,NA,NA,NA,NA,NA,NA,NA
NA,NA,"Stimuli/Words/word30.jpg","Stimuli/Words/word30.jpg","s",0,"s",1,1.2368,0,4,4,4,1,41,"Stimuli/Words/word18.jpg","Stimuli/Words/word18.jpg","s","third",2,0,0.058,0.0582,"2021-12-13_16h06.00.378","01_word_task_central","2020.2.4","Win32",60,1280,720,"",NA,NA,NA,NA,NA,NA,NA,NA,NA,NA,NA
NA,NA,"Stimuli/Words/word51.jpg","Stimuli/Words/word51.jpg","s",0,"s",1,1.2697,0,5,5,5,1,88,"Stimuli/Words/word03.jpg","Stimuli/Words/word04.jpg","d","third",2,0,0.058,0.0582,"2021-12-13_16h06.00.378","01_word_task_central","2020.2.4","Win32",60,1280,720,"",NA,NA,NA,NA,NA,NA,NA,NA,NA,NA,NA
NA,NA,"Stimuli/Words/word23.jpg","Stimuli/Words/word24.jpg","d",0,"d",1,1.3543,0,6,6,6,1,17,"Stimuli/Words/word34.jpg","Stimuli/Words/word34.jpg","s","second",2,0,0.058,0.0582,"2021-12-13_16h06.00.378","01_word_task_central","2020.2.4","Win32",60,1280,720,"",NA,NA,NA,NA,NA,NA,NA,NA,NA,NA,NA
NA,NA,"Stimuli/Words/word25.jpg","Stimuli/Words/word26.jpg","d",0,"d",1,1.2692,0,7,7,7,1,105,"Stimuli/Words/word44.jpg","Stimuli/Words/word43.jpg","d","third",2,0,0.058,0.0582,"2021-12-13_16h06.00.378","01_word_task_central","2020.2.4","Win32",60,1280,720,"",NA,NA,NA,NA,NA,NA,NA,NA,NA,NA,NA
NA,NA,"Stimuli/Words/word06.jpg","Stimuli/Words/word05.jpg","d",0,"d",1,1.4599,0,8,8,8,1,23,"Stimuli/Words/word40.jpg","Stimuli/Words/word40.jpg","s","second",2,0,0.058,0.0582,"2021-12-13_16h06.00.378","01_word_task_central","2020.2.4","Win32",60,1280,720,"",NA,NA,NA,NA,NA,NA,NA,NA,NA,NA,NA
NA,NA,"Stimuli/Words/word44.jpg","Stimuli/Words/word43.jpg","d",0,"d",1,0.9378,0,9,9,9,1,81,"Stimuli/Words/word40.jpg","Stimuli/Words/word39.jpg","d","second",2,0,0.058,0.0582,"2021-12-13_16h06.00.378","01_word_task_central","2020.2.4","Win32",60,1280,720,"",NA,NA,NA,NA,NA,NA,NA,NA,NA,NA,NA
NA,NA,"Stimuli/Words/word40.jpg","Stimuli/Words/word40.jpg","s",0,"d",0,3.028900001,0,10,10,10,1,26,"Stimuli/Words/word55.jpg","Stimuli/Words/word55.jpg","s","second",2,0,0.058,0.0582,"2021-12-13_16h06.00.378","01_word_task_central","2020.2.4","Win32",60,1280,720,"",NA,NA,NA,NA,NA,NA,NA,NA,NA,NA,NA
NA,NA,"Stimuli/Words/word56.jpg","Stimuli/Words/word55.jpg","d",0,"d",1,0.919,0,11,11,11,1,19,"Stimuli/Words/word36.jpg","Stimuli/Words/word36.jpg","s","second",2,0,0.058,0.0582,"2021-12-13_16h06.00.378","01_word_task_central","2020.2.4","Win32",60,1280,720,"",NA,NA,NA,NA,NA,NA,NA,NA,NA,NA,NA
NA,NA,"Stimuli/Words/word12.jpg","Stimuli/Words/word11.jpg","d",0,"d",1,1.0315,0,12,12,12,1,67,"Stimuli/Words/word26.jpg","Stimuli/Words/word25.jpg","d","second",2,0,0.058,0.0582,"2021-12-13_16h06.00.378","01_word_task_central","2020.2.4","Win32",60,1280,720,"",NA,NA,NA,NA,NA,NA,NA,NA,NA,NA,NA
NA,NA,"Stimuli/Words/word34.jpg","Stimuli/Words/word34.jpg","s",0,"d",0,1.9177,0,13,13,13,1,62,"Stimuli/Words/word21.jpg","Stimuli/Words/word22.jpg","d","second",2,0,0.058,0.0582,"2021-12-13_16h06.00.378","01_word_task_central","2020.2.4","Win32",60,1280,720,"",NA,NA,NA,NA,NA,NA,NA,NA,NA,NA,NA
NA,NA,"Stimuli/Words/word28.jpg","Stimuli/Words/word28.jpg","s",0,"s",1,0.882599999,0,14,14,14,1,21,"Stimuli/Words/word38.jpg","Stimuli/Words/word38.jpg","s","second",2,0,0.058,0.0582,"2021-12-13_16h06.00.378","01_word_task_central","2020.2.4","Win32",60,1280,720,"",NA,NA,NA,NA,NA,NA,NA,NA,NA,NA,NA
NA,NA,"Stimuli/Words/word06.jpg","Stimuli/Words/word06.jpg","s",0,"s",1,0.6058,0,15,15,15,1,78,"Stimuli/Words/word37.jpg","Stimuli/Words/word38.jpg","d","second",2,0,0.058,0.0582,"2021-12-13_16h06.00.378","01_word_task_central","2020.2.4","Win32",60,1280,720,"",NA,NA,NA,NA,NA,NA,NA,NA,NA,NA,NA
NA,NA,"Stimuli/Words/word03.jpg","Stimuli/Words/word04.jpg","d",0,"d",1,1.168,0,16,16,16,1,48,"Stimuli/Words/word45.jpg","Stimuli/Words/word45.jpg","s","third",2,0,0.058,0.0582,"2021-12-13_16h06.00.378","01_word_task_central","2020.2.4","Win32",60,1280,720,"",NA,NA,NA,NA,NA,NA,NA,NA,NA,NA,NA
NA,NA,"Stimuli/Words/word34.jpg","Stimuli/Words/word33.jpg","d",0,"d",1,1.054400001,0,17,17,17,1,107,"Stimuli/Words/word46.jpg","Stimuli/Words/word45.jpg","d","third",2,0,0.058,0.0582,"2021-12-13_16h06.00.378","01_word_task_central","2020.2.4","Win32",60,1280,720,"",NA,NA,NA,NA,NA,NA,NA,NA,NA,NA,NA
NA,NA,"Stimuli/Words/word09.jpg","Stimuli/Words/word09.jpg","s",0,"s",1,1.0823,0,18,18,18,1,34,"Stimuli/Words/word11.jpg","Stimuli/Words/word11.jpg","s","third",2,0,0.058,0.0582,"2021-12-13_16h06.00.378","01_word_task_central","2020.2.4","Win32",60,1280,720,"",NA,NA,NA,NA,NA,NA,NA,NA,NA,NA,NA
NA,NA,"Stimuli/Words/word55.jpg","Stimuli/Words/word55.jpg","s",0,"s",1,2.1543,0,19,19,19,1,66,"Stimuli/Words/word25.jpg","Stimuli/Words/word26.jpg","d","second",2,0,0.058,0.0582,"2021-12-13_16h06.00.378","01_word_task_central","2020.2.4","Win32",60,1280,720,"",NA,NA,NA,NA,NA,NA,NA,NA,NA,NA,NA
NA,NA,"Stimuli/Words/word45.jpg","Stimuli/Words/word45.jpg","s",0,"s",1,1.361,0,20,20,20,1,54,"Stimuli/Words/word51.jpg","Stimuli/Words/word51.jpg","s","third",2,0,0.058,0.0582,"2021-12-13_16h06.00.378","01_word_task_central","2020.2.4","Win32",60,1280,720,"",NA,NA,NA,NA,NA,NA,NA,NA,NA,NA,NA
NA,NA,"Stimuli/Words/word18.jpg","Stimuli/Words/word18.jpg","s",0,"s",1,1.1043,0,21,21,21,1,1,"Stimuli/Words/word06.jpg","Stimuli/Words/word06.jpg","s","second",2,0,0.058,0.0582,"2021-12-13_16h06.00.378","01_word_task_central","2020.2.4","Win32",60,1280,720,"",NA,NA,NA,NA,NA,NA,NA,NA,NA,NA,NA
NA,NA,"Stimuli/Words/word42.jpg","Stimuli/Words/word41.jpg","d",0,"d",1,0.7343,0,22,22,22,1,32,"Stimuli/Words/word09.jpg","Stimuli/Words/word09.jpg","s","third",2,0,0.058,0.0582,"2021-12-13_16h06.00.378","01_word_task_central","2020.2.4","Win32",60,1280,720,"",NA,NA,NA,NA,NA,NA,NA,NA,NA,NA,NA
NA,NA,"Stimuli/Words/word40.jpg","Stimuli/Words/word39.jpg","d",0,"d",1,0.881400001,0,23,23,23,1,103,"Stimuli/Words/word42.jpg","Stimuli/Words/word41.jpg","d","third",2,0,0.058,0.0582,"2021-12-13_16h06.00.378","01_word_task_central","2020.2.4","Win32",60,1280,720,"",NA,NA,NA,NA,NA,NA,NA,NA,NA,NA,NA
NA,NA,"Stimuli/Words/word36.jpg","Stimuli/Words/word36.jpg","s",0,"s",1,1.0013,0,24,24,24,1,11,"Stimuli/Words/word28.jpg","Stimuli/Words/word28.jpg","s","second",2,0,0.058,0.0582,"2021-12-13_16h06.00.378","01_word_task_central","2020.2.4","Win32",60,1280,720,"",NA,NA,NA,NA,NA,NA,NA,NA,NA,NA,NA
NA,NA,"Stimuli/Words/word01.jpg","Stimuli/Words/word01.jpg","s",0,"s",1,2.375400001,0,25,25,25,1,30,"Stimuli/Words/word03.jpg","Stimuli/Words/word03.jpg","s","third",2,0,0.058,0.0582,"2021-12-13_16h06.00.378","01_word_task_central","2020.2.4","Win32",60,1280,720,"",NA,NA,NA,NA,NA,NA,NA,NA,NA,NA,NA
NA,NA,"Stimuli/Words/word55.jpg","Stimuli/Words/word56.jpg","d",0,"d",1,1.0005,0,26,26,26,1,13,"Stimuli/Words/word30.jpg","Stimuli/Words/word30.jpg","s","second",2,0,0.058,0.0582,"2021-12-13_16h06.00.378","01_word_task_central","2020.2.4","Win32",60,1280,720,"",NA,NA,NA,NA,NA,NA,NA,NA,NA,NA,NA
NA,NA,"Stimuli/Words/word26.jpg","Stimuli/Words/word25.jpg","d",0,"d",1,0.989200001,0,27,27,27,1,59,"Stimuli/Words/word06.jpg","Stimuli/Words/word05.jpg","d","second",2,0,0.058,0.0582,"2021-12-13_16h06.00.378","01_word_task_central","2020.2.4","Win32",60,1280,720,"",NA,NA,NA,NA,NA,NA,NA,NA,NA,NA,NA
NA,NA,"Stimuli/Words/word21.jpg","Stimuli/Words/word22.jpg","d",0,"d",1,1.1445,0,28,28,28,1,93,"Stimuli/Words/word12.jpg","Stimuli/Words/word11.jpg","d","third",2,0,0.058,0.0582,"2021-12-13_16h06.00.378","01_word_task_central","2020.2.4","Win32",60,1280,720,"",NA,NA,NA,NA,NA,NA,NA,NA,NA,NA,NA
NA,NA,"Stimuli/Words/word37.jpg","Stimuli/Words/word38.jpg","d",0,"d",1,1.4825,0,29,29,29,1,84,"Stimuli/Words/word55.jpg","Stimuli/Words/word56.jpg","d","second",2,0,0.058,0.0582,"2021-12-13_16h06.00.378","01_word_task_central","2020.2.4","Win32",60,1280,720,"",NA,NA,NA,NA,NA,NA,NA,NA,NA,NA,NA
NA,NA,"Stimuli/Words/word38.jpg","Stimuli/Words/word38.jpg","s",0,"s",1,1.4167,0,30,30,30,1,75,"Stimuli/Words/word34.jpg","Stimuli/Words/word33.jpg","d","second",2,0,0.058,0.0582,"2021-12-13_16h06.00.378","01_word_task_central","2020.2.4","Win32",60,1280,720,"",NA,NA,NA,NA,NA,NA,NA,NA,NA,NA,NA
NA,NA,"Stimuli/Words/word03.jpg","Stimuli/Words/word03.jpg","s",0,"s",1,1.090400001,0,31,31,31,1,115,"Stimuli/Words/word58.jpg","Stimuli/Words/word57.jpg","d","third",2,0,0.058,0.0582,"2021-12-13_16h06.00.378","01_word_task_central","2020.2.4","Win32",60,1280,720,"",NA,NA,NA,NA,NA,NA,NA,NA,NA,NA,NA
NA,NA,"Stimuli/Words/word22.jpg","Stimuli/Words/word22.jpg","s",0,"s",1,0.979400001,NA,NA,NA,NA,NA,10,"Stimuli/Words/word27.jpg","Stimuli/Words/word27.jpg","s","second",2,0,0.058,0.0582,"2021-12-13_16h06.00.378","01_word_task_central","2020.2.4","Win32",60,1280,720,"space",12.0651,0,0,0,0,1,NA,NA,NA,NA,NA
NA,NA,"Stimuli/Words/word30.jpg","Stimuli/Words/word29.jpg","d",0,"d",1,1.332,NA,NA,NA,NA,NA,7,"Stimuli/Words/word24.jpg","Stimuli/Words/word24.jpg","s","second",2,0,0.058,0.0582,"2021-12-13_16h06.00.378","01_word_task_central","2020.2.4","Win32",60,1280,720,"",NA,0,1,1,1,1,NA,NA,NA,NA,NA
NA,NA,"Stimuli/Words/word43.jpg","Stimuli/Words/word43.jpg","s",0,"s",1,1.477599999,NA,NA,NA,NA,NA,46,"Stimuli/Words/word43.jpg","Stimuli/Words/word43.jpg","s","third",2,0,0.058,0.0582,"2021-12-13_16h06.00.378","01_word_task_central","2020.2.4","Win32",60,1280,720,"",NA,0,2,2,2,1,NA,NA,NA,NA,NA
NA,NA,"Stimuli/Words/word15.jpg","Stimuli/Words/word15.jpg","s",0,"s",1,1.0644,NA,NA,NA,NA,NA,69,"Stimuli/Words/word28.jpg","Stimuli/Words/word27.jpg","d","second",2,0,0.058,0.0582,"2021-12-13_16h06.00.378","01_word_task_central","2020.2.4","Win32",60,1280,720,"",NA,0,3,3,3,1,NA,NA,NA,NA,NA
NA,NA,"Stimuli/Words/word25.jpg","Stimuli/Words/word25.jpg","s",0,"s",1,1.192599999,NA,NA,NA,NA,NA,91,"Stimuli/Words/word10.jpg","Stimuli/Words/word09.jpg","d","third",2,0,0.058,0.0582,"2021-12-13_16h06.00.378","01_word_task_central","2020.2.4","Win32",60,1280,720,"",NA,0,4,4,4,1,NA,NA,NA,NA,NA
NA,NA,"Stimuli/Words/word47.jpg","Stimuli/Words/word47.jpg","s",0,"s",1,1.1056,NA,NA,NA,NA,NA,5,"Stimuli/Words/word22.jpg","Stimuli/Words/word22.jpg","s","second",2,0,0.058,0.0582,"2021-12-13_16h06.00.378","01_word_task_central","2020.2.4","Win32",60,1280,720,"",NA,0,5,5,5,1,NA,NA,NA,NA,NA
NA,NA,"Stimuli/Words/word08.jpg","Stimuli/Words/word08.jpg","s",0,"s",1,1.2573,NA,NA,NA,NA,NA,0,"Stimuli/Words/word05.jpg","Stimuli/Words/word05.jpg","s","second",2,0,0.058,0.0582,"2021-12-13_16h06.00.378","01_word_task_central","2020.2.4","Win32",60,1280,720,"",NA,0,6,6,6,1,NA,NA,NA,NA,NA
NA,NA,"Stimuli/Words/word13.jpg","Stimuli/Words/word13.jpg","s",0,"s",1,1.2298,NA,NA,NA,NA,NA,114,"Stimuli/Words/word57.jpg","Stimuli/Words/word58.jpg","d","third",2,0,0.058,0.0582,"2021-12-13_16h06.00.378","01_word_task_central","2020.2.4","Win32",60,1280,720,"",NA,0,7,7,7,1,NA,NA,NA,NA,NA
NA,NA,"Stimuli/Words/word19.jpg","Stimuli/Words/word19.jpg","s",0,"s",1,1.253900001,NA,NA,NA,NA,NA,49,"Stimuli/Words/word46.jpg","Stimuli/Words/word46.jpg","s","third",2,0,0.058,0.0582,"2021-12-13_16h06.00.378","01_word_task_central","2020.2.4","Win32",60,1280,720,"",NA,0,8,8,8,1,NA,NA,NA,NA,NA
NA,NA,"Stimuli/Words/word10.jpg","Stimuli/Words/word09.jpg","d",0,"d",1,1.2718,NA,NA,NA,NA,NA,83,"Stimuli/Words/word54.jpg","Stimuli/Words/word53.jpg","d","second",2,0,0.058,0.0582,"2021-12-13_16h06.00.378","01_word_task_central","2020.2.4","Win32",60,1280,720,"",NA,0,9,9,9,1,NA,NA,NA,NA,NA
NA,NA,"Stimuli/Words/word35.jpg","Stimuli/Words/word35.jpg","s",0,"s",1,1.2095,NA,NA,NA,NA,NA,15,"Stimuli/Words/word32.jpg","Stimuli/Words/word32.jpg","s","second",2,0,0.058,0.0582,"2021-12-13_16h06.00.378","01_word_task_central","2020.2.4","Win32",60,1280,720,"",NA,0,10,10,10,1,NA,NA,NA,NA,NA
NA,NA,"Stimuli/Words/word57.jpg","Stimuli/Words/word58.jpg","d",0,"d",1,1.8035,NA,NA,NA,NA,NA,100,"Stimuli/Words/word19.jpg","Stimuli/Words/word20.jpg","d","third",2,0,0.058,0.0582,"2021-12-13_16h06.00.378","01_word_task_central","2020.2.4","Win32",60,1280,720,"",NA,0,11,11,11,1,NA,NA,NA,NA,NA
NA,NA,"Stimuli/Words/word46.jpg","Stimuli/Words/word46.jpg","s",0,"s",1,1.0891,NA,NA,NA,NA,NA,58,"Stimuli/Words/word05.jpg","Stimuli/Words/word06.jpg","d","second",2,0,0.058,0.0582,"2021-12-13_16h06.00.378","01_word_task_central","2020.2.4","Win32",60,1280,720,"",NA,0,12,12,12,1,NA,NA,NA,NA,NA
NA,NA,"Stimuli/Words/word28.jpg","Stimuli/Words/word27.jpg","d",0,"d",1,0.8973,NA,NA,NA,NA,NA,87,"Stimuli/Words/word02.jpg","Stimuli/Words/word01.jpg","d","third",2,0,0.058,0.0582,"2021-12-13_16h06.00.378","01_word_task_central","2020.2.4","Win32",60,1280,720,"",NA,0,13,13,13,1,NA,NA,NA,NA,NA
NA,NA,"Stimuli/Words/word29.jpg","Stimuli/Words/word29.jpg","s",0,"s",1,1.3628,NA,NA,NA,NA,NA,97,"Stimuli/Words/word16.jpg","Stimuli/Words/word15.jpg","d","third",2,0,0.058,0.0582,"2021-12-13_16h06.00.378","01_word_task_central","2020.2.4","Win32",60,1280,720,"",NA,0,14,14,14,1,NA,NA,NA,NA,NA
NA,NA,"Stimuli/Words/word12.jpg","Stimuli/Words/word12.jpg","s",0,"s",1,0.9181,NA,NA,NA,NA,NA,60,"Stimuli/Words/word07.jpg","Stimuli/Words/word08.jpg","d","second",2,0,0.058,0.0582,"2021-12-13_16h06.00.378","01_word_task_central","2020.2.4","Win32",60,1280,720,"",NA,0,15,15,15,1,NA,NA,NA,NA,NA
NA,NA,"Stimuli/Words/word07.jpg","Stimuli/Words/word08.jpg","d",0,"d",1,1.379799999,NA,NA,NA,NA,NA,12,"Stimuli/Words/word29.jpg","Stimuli/Words/word29.jpg","s","second",2,0,0.058,0.0582,"2021-12-13_16h06.00.378","01_word_task_central","2020.2.4","Win32",60,1280,720,"",NA,0,16,16,16,1,NA,NA,NA,NA,NA
NA,NA,"Stimuli/Words/word19.jpg","Stimuli/Words/word20.jpg","d",0,"d",1,1.4884,NA,NA,NA,NA,NA,104,"Stimuli/Words/word43.jpg","Stimuli/Words/word44.jpg","d","third",2,0,0.058,0.0582,"2021-12-13_16h06.00.378","01_word_task_central","2020.2.4","Win32",60,1280,720,"",NA,0,17,17,17,1,NA,NA,NA,NA,NA
NA,NA,"Stimuli/Words/word02.jpg","Stimuli/Words/word02.jpg","s",0,"s",1,1.186799999,NA,NA,NA,NA,NA,8,"Stimuli/Words/word25.jpg","Stimuli/Words/word25.jpg","s","second",2,0,0.058,0.0582,"2021-12-13_16h06.00.378","01_word_task_central","2020.2.4","Win32",60,1280,720,"",NA,0,18,18,18,1,NA,NA,NA,NA,NA
NA,NA,"Stimuli/Words/word48.jpg","Stimuli/Words/word47.jpg","d",0,"d",1,1.2087,NA,NA,NA,NA,NA,35,"Stimuli/Words/word12.jpg","Stimuli/Words/word12.jpg","s","third",2,0,0.058,0.0582,"2021-12-13_16h06.00.378","01_word_task_central","2020.2.4","Win32",60,1280,720,"",NA,0,19,19,19,1,NA,NA,NA,NA,NA
NA,NA,"Stimuli/Words/word24.jpg","Stimuli/Words/word24.jpg","s",0,"s",1,0.8763,NA,NA,NA,NA,NA,109,"Stimuli/Words/word48.jpg","Stimuli/Words/word47.jpg","d","third",2,0,0.058,0.0582,"2021-12-13_16h06.00.378","01_word_task_central","2020.2.4","Win32",60,1280,720,"",NA,0,20,20,20,1,NA,NA,NA,NA,NA
NA,NA,"Stimuli/Words/word42.jpg","Stimuli/Words/word42.jpg","s",0,"s",1,1.437900001,NA,NA,NA,NA,NA,20,"Stimuli/Words/word37.jpg","Stimuli/Words/word37.jpg","s","second",2,0,0.058,0.0582,"2021-12-13_16h06.00.378","01_word_task_central","2020.2.4","Win32",60,1280,720,"",NA,0,21,21,21,1,NA,NA,NA,NA,NA
NA,NA,"Stimuli/Words/word23.jpg","Stimuli/Words/word23.jpg","s",0,"s",1,0.7315,NA,NA,NA,NA,NA,71,"Stimuli/Words/word30.jpg","Stimuli/Words/word29.jpg","d","second",2,0,0.058,0.0582,"2021-12-13_16h06.00.378","01_word_task_central","2020.2.4","Win32",60,1280,720,"",NA,0,22,22,22,1,NA,NA,NA,NA,NA
NA,NA,"Stimuli/Words/word37.jpg","Stimuli/Words/word37.jpg","s",0,"s",1,0.7193,NA,NA,NA,NA,NA,36,"Stimuli/Words/word13.jpg","Stimuli/Words/word13.jpg","s","third",2,0,0.058,0.0582,"2021-12-13_16h06.00.378","01_word_task_central","2020.2.4","Win32",60,1280,720,"",NA,0,23,23,23,1,NA,NA,NA,NA,NA
NA,NA,"Stimuli/Words/word16.jpg","Stimuli/Words/word15.jpg","d",0,"d",1,0.7771,NA,NA,NA,NA,NA,6,"Stimuli/Words/word23.jpg","Stimuli/Words/word23.jpg","s","second",2,0,0.058,0.0582,"2021-12-13_16h06.00.378","01_word_task_central","2020.2.4","Win32",60,1280,720,"",NA,0,24,24,24,1,NA,NA,NA,NA,NA
NA,NA,"Stimuli/Words/word27.jpg","Stimuli/Words/word27.jpg","s",0,"s",1,1.1476,NA,NA,NA,NA,NA,18,"Stimuli/Words/word35.jpg","Stimuli/Words/word35.jpg","s","second",2,0,0.058,0.0582,"2021-12-13_16h06.00.378","01_word_task_central","2020.2.4","Win32",60,1280,720,"",NA,0,25,25,25,1,NA,NA,NA,NA,NA
NA,NA,"Stimuli/Words/word02.jpg","Stimuli/Words/word01.jpg","d",0,"d",1,1.603099999,NA,NA,NA,NA,NA,42,"Stimuli/Words/word19.jpg","Stimuli/Words/word19.jpg","s","third",2,0,0.058,0.0582,"2021-12-13_16h06.00.378","01_word_task_central","2020.2.4","Win32",60,1280,720,"",NA,0,26,26,26,1,NA,NA,NA,NA,NA
NA,NA,"Stimuli/Words/word05.jpg","Stimuli/Words/word05.jpg","s",0,"s",1,1.6925,NA,NA,NA,NA,NA,38,"Stimuli/Words/word15.jpg","Stimuli/Words/word15.jpg","s","third",2,0,0.058,0.0582,"2021-12-13_16h06.00.378","01_word_task_central","2020.2.4","Win32",60,1280,720,"",NA,0,27,27,27,1,NA,NA,NA,NA,NA
NA,NA,"Stimuli/Words/word32.jpg","Stimuli/Words/word32.jpg","s",0,"s",1,1.8353,NA,NA,NA,NA,NA,3,"Stimuli/Words/word08.jpg","Stimuli/Words/word08.jpg","s","second",2,0,0.058,0.0582,"2021-12-13_16h06.00.378","01_word_task_central","2020.2.4","Win32",60,1280,720,"",NA,0,28,28,28,1,NA,NA,NA,NA,NA
NA,NA,"Stimuli/Words/word54.jpg","Stimuli/Words/word53.jpg","d",0,"d",1,1.168599999,NA,NA,NA,NA,NA,45,"Stimuli/Words/word42.jpg","Stimuli/Words/word42.jpg","s","third",2,0,0.058,0.0582,"2021-12-13_16h06.00.378","01_word_task_central","2020.2.4","Win32",60,1280,720,"",NA,0,29,29,29,1,NA,NA,NA,NA,NA
NA,NA,"Stimuli/Words/word43.jpg","Stimuli/Words/word44.jpg","d",0,"d",1,0.9986,NA,NA,NA,NA,NA,29,"Stimuli/Words/word02.jpg","Stimuli/Words/word02.jpg","s","third",2,0,0.058,0.0582,"2021-12-13_16h06.00.378","01_word_task_central","2020.2.4","Win32",60,1280,720,"",NA,0,30,30,30,1,NA,NA,NA,NA,NA
NA,NA,"Stimuli/Words/word05.jpg","Stimuli/Words/word06.jpg","d",0,"d",1,0.8955,NA,NA,NA,NA,NA,50,"Stimuli/Words/word47.jpg","Stimuli/Words/word47.jpg","s","third",2,0,0.058,0.0582,"2021-12-13_16h06.00.378","01_word_task_central","2020.2.4","Win32",60,1280,720,"",NA,0,31,31,31,1,NA,NA,NA,NA,NA
NA,NA,"Stimuli/Words/word15.jpg","Stimuli/Words/word16.jpg","d",0,"d",1,0.730900001,NA,NA,NA,NA,NA,25,"Stimuli/Words/word54.jpg","Stimuli/Words/word54.jpg","s","second",2,0,0.058,0.0582,"2021-12-13_16h06.00.378","01_word_task_central","2020.2.4","Win32",60,1280,720,"space",9.4,NA,NA,NA,NA,NA,0,0,0,0,1
NA,NA,"Stimuli/Words/word50.jpg","Stimuli/Words/word49.jpg","d",0,"d",1,0.750599999,NA,NA,NA,NA,NA,106,"Stimuli/Words/word45.jpg","Stimuli/Words/word46.jpg","d","third",2,0,0.058,0.0582,"2021-12-13_16h06.00.378","01_word_task_central","2020.2.4","Win32",60,1280,720,"",NA,NA,NA,NA,NA,NA,0,1,1,1,1
NA,NA,"Stimuli/Words/word49.jpg","Stimuli/Words/word50.jpg","d",0,"d",1,1.2296,NA,NA,NA,NA,NA,43,"Stimuli/Words/word20.jpg","Stimuli/Words/word20.jpg","s","third",2,0,0.058,0.0582,"2021-12-13_16h06.00.378","01_word_task_central","2020.2.4","Win32",60,1280,720,"",NA,NA,NA,NA,NA,NA,0,2,2,2,1
NA,NA,"Stimuli/Words/word09.jpg","Stimuli/Words/word10.jpg","d",0,"d",1,0.8768,NA,NA,NA,NA,NA,70,"Stimuli/Words/word29.jpg","Stimuli/Words/word30.jpg","d","second",2,0,0.058,0.0582,"2021-12-13_16h06.00.378","01_word_task_central","2020.2.4","Win32",60,1280,720,"",NA,NA,NA,NA,NA,NA,0,3,3,3,1
NA,NA,"Stimuli/Words/word41.jpg","Stimuli/Words/word41.jpg","s",0,"d",0,1.190799999,NA,NA,NA,NA,NA,47,"Stimuli/Words/word44.jpg","Stimuli/Words/word44.jpg","s","third",2,0,0.058,0.0582,"2021-12-13_16h06.00.378","01_word_task_central","2020.2.4","Win32",60,1280,720,"",NA,NA,NA,NA,NA,NA,0,4,4,4,1
NA,NA,"Stimuli/Words/word22.jpg","Stimuli/Words/word21.jpg","d",0,"d",1,1.418200001,NA,NA,NA,NA,NA,110,"Stimuli/Words/word49.jpg","Stimuli/Words/word50.jpg","d","third",2,0,0.058,0.0582,"2021-12-13_16h06.00.378","01_word_task_central","2020.2.4","Win32",60,1280,720,"",NA,NA,NA,NA,NA,NA,0,5,5,5,1
NA,NA,"Stimuli/Words/word31.jpg","Stimuli/Words/word31.jpg","s",0,"s",1,1.483200001,NA,NA,NA,NA,NA,98,"Stimuli/Words/word17.jpg","Stimuli/Words/word18.jpg","d","third",2,0,0.058,0.0582,"2021-12-13_16h06.00.378","01_word_task_central","2020.2.4","Win32",60,1280,720,"",NA,NA,NA,NA,NA,NA,0,6,6,6,1
NA,NA,"Stimuli/Words/word31.jpg","Stimuli/Words/word32.jpg","d",0,"d",1,0.8751,NA,NA,NA,NA,NA,55,"Stimuli/Words/word52.jpg","Stimuli/Words/word52.jpg","s","third",2,0,0.058,0.0582,"2021-12-13_16h06.00.378","01_word_task_central","2020.2.4","Win32",60,1280,720,"",NA,NA,NA,NA,NA,NA,0,7,7,7,1
NA,NA,"Stimuli/Words/word45.jpg","Stimuli/Words/word46.jpg","d",0,"d",1,1.118,NA,NA,NA,NA,NA,72,"Stimuli/Words/word31.jpg","Stimuli/Words/word32.jpg","d","second",2,0,0.058,0.0582,"2021-12-13_16h06.00.378","01_word_task_central","2020.2.4","Win32",60,1280,720,"",NA,NA,NA,NA,NA,NA,0,8,8,8,1
NA,NA,"Stimuli/Words/word14.jpg","Stimuli/Words/word13.jpg","d",0,"d",1,1.076,NA,NA,NA,NA,NA,4,"Stimuli/Words/word21.jpg","Stimuli/Words/word21.jpg","s","second",2,0,0.058,0.0582,"2021-12-13_16h06.00.378","01_word_task_central","2020.2.4","Win32",60,1280,720,"",NA,NA,NA,NA,NA,NA,0,9,9,9,1
NA,NA,"Stimuli/Words/word26.jpg","Stimuli/Words/word26.jpg","s",0,"s",1,1.4936,NA,NA,NA,NA,NA,96,"Stimuli/Words/word15.jpg","Stimuli/Words/word16.jpg","d","third",2,0,0.058,0.0582,"2021-12-13_16h06.00.378","01_word_task_central","2020.2.4","Win32",60,1280,720,"",NA,NA,NA,NA,NA,NA,0,10,10,10,1
NA,NA,"Stimuli/Words/word50.jpg","Stimuli/Words/word50.jpg","s",0,"s",1,1.3748,NA,NA,NA,NA,NA,9,"Stimuli/Words/word26.jpg","Stimuli/Words/word26.jpg","s","second",2,0,0.058,0.0582,"2021-12-13_16h06.00.378","01_word_task_central","2020.2.4","Win32",60,1280,720,"",NA,NA,NA,NA,NA,NA,0,11,11,11,1
NA,NA,"Stimuli/Words/word54.jpg","Stimuli/Words/word54.jpg","s",0,"s",1,1.1659,NA,NA,NA,NA,NA,68,"Stimuli/Words/word27.jpg","Stimuli/Words/word28.jpg","d","second",2,0,0.058,0.0582,"2021-12-13_16h06.00.378","01_word_task_central","2020.2.4","Win32",60,1280,720,"",NA,NA,NA,NA,NA,NA,0,12,12,12,1
NA,NA,"Stimuli/Words/word29.jpg","Stimuli/Words/word30.jpg","d",0,"d",1,0.8624,NA,NA,NA,NA,NA,89,"Stimuli/Words/word04.jpg","Stimuli/Words/word03.jpg","d","third",2,0,0.058,0.0582,"2021-12-13_16h06.00.378","01_word_task_central","2020.2.4","Win32",60,1280,720,"",NA,NA,NA,NA,NA,NA,0,13,13,13,1
NA,NA,"Stimuli/Words/word27.jpg","Stimuli/Words/word28.jpg","d",0,"d",1,2.076099999,NA,NA,NA,NA,NA,39,"Stimuli/Words/word16.jpg","Stimuli/Words/word16.jpg","s","third",2,0,0.058,0.0582,"2021-12-13_16h06.00.378","01_word_task_central","2020.2.4","Win32",60,1280,720,"",NA,NA,NA,NA,NA,NA,0,14,14,14,1
NA,NA,"Stimuli/Words/word47.jpg","Stimuli/Words/word48.jpg","d",0,"d",1,3.2558,NA,NA,NA,NA,NA,79,"Stimuli/Words/word38.jpg","Stimuli/Words/word37.jpg","d","second",2,0,0.058,0.0582,"2021-12-13_16h06.00.378","01_word_task_central","2020.2.4","Win32",60,1280,720,"",NA,NA,NA,NA,NA,NA,0,15,15,15,1
NA,NA,"Stimuli/Words/word16.jpg","Stimuli/Words/word16.jpg","s",0,"s",1,0.9663,NA,NA,NA,NA,NA,108,"Stimuli/Words/word47.jpg","Stimuli/Words/word48.jpg","d","third",2,0,0.058,0.0582,"2021-12-13_16h06.00.378","01_word_task_central","2020.2.4","Win32",60,1280,720,"",NA,NA,NA,NA,NA,NA,0,16,16,16,1
NA,NA,"Stimuli/Words/word10.jpg","Stimuli/Words/word10.jpg","s",0,"s",1,1.9571,NA,NA,NA,NA,NA,61,"Stimuli/Words/word08.jpg","Stimuli/Words/word07.jpg","d","second",2,0,0.058,0.0582,"2021-12-13_16h06.00.378","01_word_task_central","2020.2.4","Win32",60,1280,720,"",NA,NA,NA,NA,NA,NA,0,17,17,17,1
NA,NA,"Stimuli/Words/word41.jpg","Stimuli/Words/word42.jpg","d",0,"d",1,0.752,NA,NA,NA,NA,NA,102,"Stimuli/Words/word41.jpg","Stimuli/Words/word42.jpg","d","third",2,0,0.058,0.0582,"2021-12-13_16h06.00.378","01_word_task_central","2020.2.4","Win32",60,1280,720,"",NA,NA,NA,NA,NA,NA,0,18,18,18,1
NA,NA,"Stimuli/Words/word52.jpg","Stimuli/Words/word52.jpg","s",0,"s",1,1.086599999,NA,NA,NA,NA,NA,95,"Stimuli/Words/word14.jpg","Stimuli/Words/word13.jpg","d","third",2,0,0.058,0.0582,"2021-12-13_16h06.00.378","01_word_task_central","2020.2.4","Win32",60,1280,720,"",NA,NA,NA,NA,NA,NA,0,19,19,19,1
NA,NA,"Stimuli/Words/word08.jpg","Stimuli/Words/word07.jpg","d",0,"d",1,1.6463,NA,NA,NA,NA,NA,111,"Stimuli/Words/word50.jpg","Stimuli/Words/word49.jpg","d","third",2,0,0.058,0.0582,"2021-12-13_16h06.00.378","01_word_task_central","2020.2.4","Win32",60,1280,720,"",NA,NA,NA,NA,NA,NA,0,20,20,20,1
NA,NA,"Stimuli/Words/word24.jpg","Stimuli/Words/word23.jpg","d",0,"d",1,1.86,NA,NA,NA,NA,NA,14,"Stimuli/Words/word31.jpg","Stimuli/Words/word31.jpg","s","second",2,0,0.058,0.0582,"2021-12-13_16h06.00.378","01_word_task_central","2020.2.4","Win32",60,1280,720,"",NA,NA,NA,NA,NA,NA,0,21,21,21,1
NA,NA,"Stimuli/Words/word52.jpg","Stimuli/Words/word51.jpg","d",0,"d",1,2.3342,NA,NA,NA,NA,NA,53,"Stimuli/Words/word50.jpg","Stimuli/Words/word50.jpg","s","third",2,0,0.058,0.0582,"2021-12-13_16h06.00.378","01_word_task_central","2020.2.4","Win32",60,1280,720,"",NA,NA,NA,NA,NA,NA,0,22,22,22,1
NA,NA,"Stimuli/Words/word38.jpg","Stimuli/Words/word37.jpg","d",0,"d",1,0.875099999,NA,NA,NA,NA,NA,113,"Stimuli/Words/word52.jpg","Stimuli/Words/word51.jpg","d","third",2,0,0.058,0.0582,"2021-12-13_16h06.00.378","01_word_task_central","2020.2.4","Win32",60,1280,720,"",NA,NA,NA,NA,NA,NA,0,23,23,23,1
NA,NA,"Stimuli/Words/word21.jpg","Stimuli/Words/word21.jpg","s",0,"s",1,2.3962,NA,NA,NA,NA,NA,22,"Stimuli/Words/word39.jpg","Stimuli/Words/word39.jpg","s","second",2,0,0.058,0.0582,"2021-12-13_16h06.00.378","01_word_task_central","2020.2.4","Win32",60,1280,720,"",NA,NA,NA,NA,NA,NA,0,24,24,24,1
NA,NA,"Stimuli/Words/word53.jpg","Stimuli/Words/word54.jpg","d",0,"d",1,2.4055,NA,NA,NA,NA,NA,44,"Stimuli/Words/word41.jpg","Stimuli/Words/word41.jpg","s","third",2,0,0.058,0.0582,"2021-12-13_16h06.00.378","01_word_task_central","2020.2.4","Win32",60,1280,720,"",NA,NA,NA,NA,NA,NA,0,25,25,25,1
NA,NA,"Stimuli/Words/word39.jpg","Stimuli/Words/word40.jpg","d",0,"d",1,0.8749,NA,NA,NA,NA,NA,90,"Stimuli/Words/word09.jpg","Stimuli/Words/word10.jpg","d","third",2,0,0.058,0.0582,"2021-12-13_16h06.00.378","01_word_task_central","2020.2.4","Win32",60,1280,720,"",NA,NA,NA,NA,NA,NA,0,26,26,26,1
NA,NA,"Stimuli/Words/word20.jpg","Stimuli/Words/word20.jpg","s",0,"s",1,1.209,NA,NA,NA,NA,NA,80,"Stimuli/Words/word39.jpg","Stimuli/Words/word40.jpg","d","second",2,0,0.058,0.0582,"2021-12-13_16h06.00.378","01_word_task_central","2020.2.4","Win32",60,1280,720,"",NA,NA,NA,NA,NA,NA,0,27,27,27,1
NA,NA,"Stimuli/Words/word44.jpg","Stimuli/Words/word44.jpg","s",0,"s",1,1.712400001,NA,NA,NA,NA,NA,65,"Stimuli/Words/word24.jpg","Stimuli/Words/word23.jpg","d","second",2,0,0.058,0.0582,"2021-12-13_16h06.00.378","01_word_task_central","2020.2.4","Win32",60,1280,720,"",NA,NA,NA,NA,NA,NA,0,28,28,28,1
NA,NA,"Stimuli/Words/word17.jpg","Stimuli/Words/word18.jpg","d",0,"d",1,1.2958,NA,NA,NA,NA,NA,33,"Stimuli/Words/word10.jpg","Stimuli/Words/word10.jpg","s","third",2,0,0.058,0.0582,"2021-12-13_16h06.00.378","01_word_task_central","2020.2.4","Win32",60,1280,720,"",NA,NA,NA,NA,NA,NA,0,29,29,29,1
NA,NA,"Stimuli/Words/word04.jpg","Stimuli/Words/word03.jpg","d",0,"d",1,2.923,NA,NA,NA,NA,NA,63,"Stimuli/Words/word22.jpg","Stimuli/Words/word21.jpg","d","second",2,0,0.058,0.0582,"2021-12-13_16h06.00.378","01_word_task_central","2020.2.4","Win32",60,1280,720,"",NA,NA,NA,NA,NA,NA,0,30,30,30,1
NA,NA,"Stimuli/Words/word39.jpg","Stimuli/Words/word39.jpg","s",0,"s",1,1.1277,NA,NA,NA,NA,NA,82,"Stimuli/Words/word53.jpg","Stimuli/Words/word54.jpg","d","second",2,0,0.058,0.0582,"2021-12-13_16h06.00.378","01_word_task_central","2020.2.4","Win32",60,1280,720,"",NA,NA,NA,NA,NA,NA,0,31,31,31,1
NA,NA,"","","",NA,"",NA,NA,NA,NA,NA,NA,NA,NA,"","","","",2,0,0.058,0.0582,"2021-12-13_16h06.00.378","01_word_task_central","2020.2.4","Win32",60,1280,720,"space",2.021900001,NA,NA,NA,NA,NA,NA,NA,NA,NA,NA
