"X.Scale","Y.Scale","image1","image2","corr_acc","xPosition","FW_resp.keys","FW_resp.corr","FW_resp.rt","word_loop_set1.thisRepN","word_loop_set1.thisTrialN","word_loop_set1.thisN","word_loop_set1.thisIndex","word_loop_set1.ran","trialID","imFile","imFile2","corr","diff","position","screen","x_scale","y_scale","date","expName","psychopyVersion","OS","frameRate","xResolution","yResolution","key_resp_3.keys","key_resp_3.rt","word_loop_set2.thisRepN","word_loop_set2.thisTrialN","word_loop_set2.thisN","word_loop_set2.thisIndex","word_loop_set2.ran","word_loop_set3.thisRepN","word_loop_set3.thisTrialN","word_loop_set3.thisN","word_loop_set3.thisIndex","word_loop_set3.ran"
0.037,0.0382,"Stimuli/Words/word50.jpg","Stimuli/Words/word50.jpg","s",0,"s",1,1.3837,0,0,0,0,1,109,"Stimuli/Words/word48.jpg","Stimuli/Words/word47.jpg","d","third",2,0,0.037,0.0382,"2021-12-21_17h10.25.796","01_word_task_central","2020.2.4","MacIntel",60,1920,1080,"",NA,NA,NA,NA,NA,NA,NA,NA,NA,NA,NA
NA,NA,"Stimuli/Words/word27.jpg","Stimuli/Words/word27.jpg","s",0,"s",1,0.4569,0,1,1,1,1,95,"Stimuli/Words/word14.jpg","Stimuli/Words/word13.jpg","d","third",2,0,0.037,0.0382,"2021-12-21_17h10.25.796","01_word_task_central","2020.2.4","MacIntel",60,1920,1080,"",NA,NA,NA,NA,NA,NA,NA,NA,NA,NA,NA
NA,NA,"Stimuli/Words/word05.jpg","Stimuli/Words/word05.jpg","s",0,"s",1,0.6705,0,2,2,2,1,71,"Stimuli/Words/word30.jpg","Stimuli/Words/word29.jpg","d","second",2,0,0.037,0.0382,"2021-12-21_17h10.25.796","01_word_task_central","2020.2.4","MacIntel",60,1920,1080,"",NA,NA,NA,NA,NA,NA,NA,NA,NA,NA,NA
NA,NA,"Stimuli/Words/word57.jpg","Stimuli/Words/word58.jpg","d",0,"d",1,0.5186,0,3,3,3,1,5,"Stimuli/Words/word22.jpg","Stimuli/Words/word22.jpg","s","second",2,0,0.037,0.0382,"2021-12-21_17h10.25.796","01_word_task_central","2020.2.4","MacIntel",60,1920,1080,"",NA,NA,NA,NA,NA,NA,NA,NA,NA,NA,NA
NA,NA,"Stimuli/Words/word30.jpg","Stimuli/Words/word29.jpg","d",0,"d",1,0.5517,0,4,4,4,1,43,"Stimuli/Words/word20.jpg","Stimuli/Words/word20.jpg","s","third",2,0,0.037,0.0382,"2021-12-21_17h10.25.796","01_word_task_central","2020.2.4","MacIntel",60,1920,1080,"",NA,NA,NA,NA,NA,NA,NA,NA,NA,NA,NA
NA,NA,"Stimuli/Words/word24.jpg","Stimuli/Words/word24.jpg","s",0,"s",1,2.1434,0,5,5,5,1,4,"Stimuli/Words/word21.jpg","Stimuli/Words/word21.jpg","s","second",2,0,0.037,0.0382,"2021-12-21_17h10.25.796","01_word_task_central","2020.2.4","MacIntel",60,1920,1080,"",NA,NA,NA,NA,NA,NA,NA,NA,NA,NA,NA
NA,NA,"Stimuli/Words/word22.jpg","Stimuli/Words/word21.jpg","d",0,"d",1,1.6279,0,6,6,6,1,53,"Stimuli/Words/word50.jpg","Stimuli/Words/word50.jpg","s","third",2,0,0.037,0.0382,"2021-12-21_17h10.25.796","01_word_task_central","2020.2.4","MacIntel",60,1920,1080,"",NA,NA,NA,NA,NA,NA,NA,NA,NA,NA,NA
NA,NA,"Stimuli/Words/word30.jpg","Stimuli/Words/word30.jpg","s",0,"s",1,1.0724,0,7,7,7,1,17,"Stimuli/Words/word34.jpg","Stimuli/Words/word34.jpg","s","second",2,0,0.037,0.0382,"2021-12-21_17h10.25.796","01_word_task_central","2020.2.4","MacIntel",60,1920,1080,"",NA,NA,NA,NA,NA,NA,NA,NA,NA,NA,NA
NA,NA,"Stimuli/Words/word57.jpg","Stimuli/Words/word57.jpg","s",0,"s",1,1.105,0,8,8,8,1,30,"Stimuli/Words/word03.jpg","Stimuli/Words/word03.jpg","s","third",2,0,0.037,0.0382,"2021-12-21_17h10.25.796","01_word_task_central","2020.2.4","MacIntel",60,1920,1080,"",NA,NA,NA,NA,NA,NA,NA,NA,NA,NA,NA
NA,NA,"Stimuli/Words/word14.jpg","Stimuli/Words/word13.jpg","d",0,"d",1,0.552,0,9,9,9,1,7,"Stimuli/Words/word24.jpg","Stimuli/Words/word24.jpg","s","second",2,0,0.037,0.0382,"2021-12-21_17h10.25.796","01_word_task_central","2020.2.4","MacIntel",60,1920,1080,"",NA,NA,NA,NA,NA,NA,NA,NA,NA,NA,NA
NA,NA,"Stimuli/Words/word55.jpg","Stimuli/Words/word56.jpg","d",0,"d",1,1.523,0,10,10,10,1,39,"Stimuli/Words/word16.jpg","Stimuli/Words/word16.jpg","s","third",2,0,0.037,0.0382,"2021-12-21_17h10.25.796","01_word_task_central","2020.2.4","MacIntel",60,1920,1080,"",NA,NA,NA,NA,NA,NA,NA,NA,NA,NA,NA
NA,NA,"Stimuli/Words/word15.jpg","Stimuli/Words/word16.jpg","d",0,"d",1,0.5729,0,11,11,11,1,96,"Stimuli/Words/word15.jpg","Stimuli/Words/word16.jpg","d","third",2,0,0.037,0.0382,"2021-12-21_17h10.25.796","01_word_task_central","2020.2.4","MacIntel",60,1920,1080,"",NA,NA,NA,NA,NA,NA,NA,NA,NA,NA,NA
NA,NA,"Stimuli/Words/word12.jpg","Stimuli/Words/word11.jpg","d",0,"d",1,0.5024,0,12,12,12,1,10,"Stimuli/Words/word27.jpg","Stimuli/Words/word27.jpg","s","second",2,0,0.037,0.0382,"2021-12-21_17h10.25.796","01_word_task_central","2020.2.4","MacIntel",60,1920,1080,"",NA,NA,NA,NA,NA,NA,NA,NA,NA,NA,NA
NA,NA,"Stimuli/Words/word16.jpg","Stimuli/Words/word16.jpg","s",0,"s",1,0.8619,0,13,13,13,1,29,"Stimuli/Words/word02.jpg","Stimuli/Words/word02.jpg","s","third",2,0,0.037,0.0382,"2021-12-21_17h10.25.796","01_word_task_central","2020.2.4","MacIntel",60,1920,1080,"",NA,NA,NA,NA,NA,NA,NA,NA,NA,NA,NA
NA,NA,"Stimuli/Words/word15.jpg","Stimuli/Words/word15.jpg","s",0,"s",1,0.901,0,14,14,14,1,42,"Stimuli/Words/word19.jpg","Stimuli/Words/word19.jpg","s","third",2,0,0.037,0.0382,"2021-12-21_17h10.25.796","01_word_task_central","2020.2.4","MacIntel",60,1920,1080,"",NA,NA,NA,NA,NA,NA,NA,NA,NA,NA,NA
NA,NA,"Stimuli/Words/word55.jpg","Stimuli/Words/word55.jpg","s",0,"s",1,0.5117,0,15,15,15,1,114,"Stimuli/Words/word57.jpg","Stimuli/Words/word58.jpg","d","third",2,0,0.037,0.0382,"2021-12-21_17h10.25.796","01_word_task_central","2020.2.4","MacIntel",60,1920,1080,"",NA,NA,NA,NA,NA,NA,NA,NA,NA,NA,NA
NA,NA,"Stimuli/Words/word45.jpg","Stimuli/Words/word45.jpg","s",0,"d",0,0.7496,0,16,16,16,1,35,"Stimuli/Words/word12.jpg","Stimuli/Words/word12.jpg","s","third",2,0,0.037,0.0382,"2021-12-21_17h10.25.796","01_word_task_central","2020.2.4","MacIntel",60,1920,1080,"",NA,NA,NA,NA,NA,NA,NA,NA,NA,NA,NA
NA,NA,"Stimuli/Words/word54.jpg","Stimuli/Words/word53.jpg","d",0,"d",1,1.8388,0,17,17,17,1,26,"Stimuli/Words/word55.jpg","Stimuli/Words/word55.jpg","s","second",2,0,0.037,0.0382,"2021-12-21_17h10.25.796","01_word_task_central","2020.2.4","MacIntel",60,1920,1080,"",NA,NA,NA,NA,NA,NA,NA,NA,NA,NA,NA
NA,NA,"Stimuli/Words/word02.jpg","Stimuli/Words/word02.jpg","s",0,"s",1,0.6482,0,18,18,18,1,89,"Stimuli/Words/word04.jpg","Stimuli/Words/word03.jpg","d","third",2,0,0.037,0.0382,"2021-12-21_17h10.25.796","01_word_task_central","2020.2.4","MacIntel",60,1920,1080,"",NA,NA,NA,NA,NA,NA,NA,NA,NA,NA,NA
NA,NA,"Stimuli/Words/word04.jpg","Stimuli/Words/word03.jpg","d",0,"d",1,0.9835,0,19,19,19,1,93,"Stimuli/Words/word12.jpg","Stimuli/Words/word11.jpg","d","third",2,0,0.037,0.0382,"2021-12-21_17h10.25.796","01_word_task_central","2020.2.4","MacIntel",60,1920,1080,"",NA,NA,NA,NA,NA,NA,NA,NA,NA,NA,NA
NA,NA,"Stimuli/Words/word58.jpg","Stimuli/Words/word57.jpg","d",0,"d",1,1.1922,0,20,20,20,1,115,"Stimuli/Words/word58.jpg","Stimuli/Words/word57.jpg","d","third",2,0,0.037,0.0382,"2021-12-21_17h10.25.796","01_word_task_central","2020.2.4","MacIntel",60,1920,1080,"",NA,NA,NA,NA,NA,NA,NA,NA,NA,NA,NA
NA,NA,"Stimuli/Words/word38.jpg","Stimuli/Words/word38.jpg","s",0,"s",1,0.6305,0,21,21,21,1,63,"Stimuli/Words/word22.jpg","Stimuli/Words/word21.jpg","d","second",2,0,0.037,0.0382,"2021-12-21_17h10.25.796","01_word_task_central","2020.2.4","MacIntel",60,1920,1080,"",NA,NA,NA,NA,NA,NA,NA,NA,NA,NA,NA
NA,NA,"Stimuli/Words/word08.jpg","Stimuli/Words/word07.jpg","d",0,"d",1,1.1713,0,22,22,22,1,21,"Stimuli/Words/word38.jpg","Stimuli/Words/word38.jpg","s","second",2,0,0.037,0.0382,"2021-12-21_17h10.25.796","01_word_task_central","2020.2.4","MacIntel",60,1920,1080,"",NA,NA,NA,NA,NA,NA,NA,NA,NA,NA,NA
NA,NA,"Stimuli/Words/word52.jpg","Stimuli/Words/word52.jpg","s",0,"s",1,1.3674,0,23,23,23,1,56,"Stimuli/Words/word57.jpg","Stimuli/Words/word57.jpg","s","third",2,0,0.037,0.0382,"2021-12-21_17h10.25.796","01_word_task_central","2020.2.4","MacIntel",60,1920,1080,"",NA,NA,NA,NA,NA,NA,NA,NA,NA,NA,NA
NA,NA,"Stimuli/Words/word21.jpg","Stimuli/Words/word21.jpg","s",0,"s",1,0.651,0,24,24,24,1,0,"Stimuli/Words/word05.jpg","Stimuli/Words/word05.jpg","s","second",2,0,0.037,0.0382,"2021-12-21_17h10.25.796","01_word_task_central","2020.2.4","MacIntel",60,1920,1080,"",NA,NA,NA,NA,NA,NA,NA,NA,NA,NA,NA
NA,NA,"Stimuli/Words/word12.jpg","Stimuli/Words/word12.jpg","s",0,"s",1,1.734,0,25,25,25,1,84,"Stimuli/Words/word55.jpg","Stimuli/Words/word56.jpg","d","second",2,0,0.037,0.0382,"2021-12-21_17h10.25.796","01_word_task_central","2020.2.4","MacIntel",60,1920,1080,"",NA,NA,NA,NA,NA,NA,NA,NA,NA,NA,NA
NA,NA,"Stimuli/Words/word19.jpg","Stimuli/Words/word19.jpg","s",0,"s",1,3.4224,0,26,26,26,1,48,"Stimuli/Words/word45.jpg","Stimuli/Words/word45.jpg","s","third",2,0,0.037,0.0382,"2021-12-21_17h10.25.796","01_word_task_central","2020.2.4","MacIntel",60,1920,1080,"",NA,NA,NA,NA,NA,NA,NA,NA,NA,NA,NA
NA,NA,"Stimuli/Words/word48.jpg","Stimuli/Words/word47.jpg","d",0,"d",1,0.6806,0,27,27,27,1,13,"Stimuli/Words/word30.jpg","Stimuli/Words/word30.jpg","s","second",2,0,0.037,0.0382,"2021-12-21_17h10.25.796","01_word_task_central","2020.2.4","MacIntel",60,1920,1080,"",NA,NA,NA,NA,NA,NA,NA,NA,NA,NA,NA
NA,NA,"Stimuli/Words/word22.jpg","Stimuli/Words/word22.jpg","s",0,"s",1,0.7588,0,28,28,28,1,83,"Stimuli/Words/word54.jpg","Stimuli/Words/word53.jpg","d","second",2,0,0.037,0.0382,"2021-12-21_17h10.25.796","01_word_task_central","2020.2.4","MacIntel",60,1920,1080,"",NA,NA,NA,NA,NA,NA,NA,NA,NA,NA,NA
NA,NA,"Stimuli/Words/word03.jpg","Stimuli/Words/word03.jpg","s",0,"s",1,0.6946,0,29,29,29,1,38,"Stimuli/Words/word15.jpg","Stimuli/Words/word15.jpg","s","third",2,0,0.037,0.0382,"2021-12-21_17h10.25.796","01_word_task_central","2020.2.4","MacIntel",60,1920,1080,"",NA,NA,NA,NA,NA,NA,NA,NA,NA,NA,NA
NA,NA,"Stimuli/Words/word20.jpg","Stimuli/Words/word20.jpg","s",0,"s",1,0.6074,0,30,30,30,1,61,"Stimuli/Words/word08.jpg","Stimuli/Words/word07.jpg","d","second",2,0,0.037,0.0382,"2021-12-21_17h10.25.796","01_word_task_central","2020.2.4","MacIntel",60,1920,1080,"",NA,NA,NA,NA,NA,NA,NA,NA,NA,NA,NA
NA,NA,"Stimuli/Words/word34.jpg","Stimuli/Words/word34.jpg","s",0,"s",1,0.5568,0,31,31,31,1,55,"Stimuli/Words/word52.jpg","Stimuli/Words/word52.jpg","s","third",2,0,0.037,0.0382,"2021-12-21_17h10.25.796","01_word_task_central","2020.2.4","MacIntel",60,1920,1080,"",NA,NA,NA,NA,NA,NA,NA,NA,NA,NA,NA
NA,NA,"Stimuli/Words/word41.jpg","Stimuli/Words/word41.jpg","s",0,"s",1,0.6523,NA,NA,NA,NA,NA,107,"Stimuli/Words/word46.jpg","Stimuli/Words/word45.jpg","d","third",2,0,0.037,0.0382,"2021-12-21_17h10.25.796","01_word_task_central","2020.2.4","MacIntel",60,1920,1080,"space",6.2426,0,0,0,0,1,NA,NA,NA,NA,NA
NA,NA,"Stimuli/Words/word03.jpg","Stimuli/Words/word04.jpg","d",0,"d",1,0.6355,NA,NA,NA,NA,NA,20,"Stimuli/Words/word37.jpg","Stimuli/Words/word37.jpg","s","second",2,0,0.037,0.0382,"2021-12-21_17h10.25.796","01_word_task_central","2020.2.4","MacIntel",60,1920,1080,"",NA,0,1,1,1,1,NA,NA,NA,NA,NA
NA,NA,"Stimuli/Words/word36.jpg","Stimuli/Words/word36.jpg","s",0,"d",0,0.8843,NA,NA,NA,NA,NA,64,"Stimuli/Words/word23.jpg","Stimuli/Words/word24.jpg","d","second",2,0,0.037,0.0382,"2021-12-21_17h10.25.796","01_word_task_central","2020.2.4","MacIntel",60,1920,1080,"",NA,0,2,2,2,1,NA,NA,NA,NA,NA
NA,NA,"Stimuli/Words/word53.jpg","Stimuli/Words/word53.jpg","s",0,"s",1,1.2663,NA,NA,NA,NA,NA,9,"Stimuli/Words/word26.jpg","Stimuli/Words/word26.jpg","s","second",2,0,0.037,0.0382,"2021-12-21_17h10.25.796","01_word_task_central","2020.2.4","MacIntel",60,1920,1080,"",NA,0,3,3,3,1,NA,NA,NA,NA,NA
NA,NA,"Stimuli/Words/word33.jpg","Stimuli/Words/word34.jpg","d",0,"d",1,0.4995,NA,NA,NA,NA,NA,105,"Stimuli/Words/word44.jpg","Stimuli/Words/word43.jpg","d","third",2,0,0.037,0.0382,"2021-12-21_17h10.25.796","01_word_task_central","2020.2.4","MacIntel",60,1920,1080,"",NA,0,4,4,4,1,NA,NA,NA,NA,NA
NA,NA,"Stimuli/Words/word26.jpg","Stimuli/Words/word26.jpg","s",0,"s",1,0.8773,NA,NA,NA,NA,NA,44,"Stimuli/Words/word41.jpg","Stimuli/Words/word41.jpg","s","third",2,0,0.037,0.0382,"2021-12-21_17h10.25.796","01_word_task_central","2020.2.4","MacIntel",60,1920,1080,"",NA,0,5,5,5,1,NA,NA,NA,NA,NA
NA,NA,"Stimuli/Words/word44.jpg","Stimuli/Words/word43.jpg","d",0,"d",1,0.4697,NA,NA,NA,NA,NA,88,"Stimuli/Words/word03.jpg","Stimuli/Words/word04.jpg","d","third",2,0,0.037,0.0382,"2021-12-21_17h10.25.796","01_word_task_central","2020.2.4","MacIntel",60,1920,1080,"",NA,0,6,6,6,1,NA,NA,NA,NA,NA
NA,NA,"Stimuli/Words/word11.jpg","Stimuli/Words/word11.jpg","s",0,"s",1,0.7195,NA,NA,NA,NA,NA,15,"Stimuli/Words/word32.jpg","Stimuli/Words/word32.jpg","s","second",2,0,0.037,0.0382,"2021-12-21_17h10.25.796","01_word_task_central","2020.2.4","MacIntel",60,1920,1080,"",NA,0,7,7,7,1,NA,NA,NA,NA,NA
NA,NA,"Stimuli/Words/word06.jpg","Stimuli/Words/word06.jpg","s",0,"d",0,0.9821,NA,NA,NA,NA,NA,19,"Stimuli/Words/word36.jpg","Stimuli/Words/word36.jpg","s","second",2,0,0.037,0.0382,"2021-12-21_17h10.25.796","01_word_task_central","2020.2.4","MacIntel",60,1920,1080,"",NA,0,8,8,8,1,NA,NA,NA,NA,NA
NA,NA,"Stimuli/Words/word01.jpg","Stimuli/Words/word02.jpg","d",0,"d",1,0.5845,NA,NA,NA,NA,NA,74,"Stimuli/Words/word33.jpg","Stimuli/Words/word34.jpg","d","second",2,0,0.037,0.0382,"2021-12-21_17h10.25.796","01_word_task_central","2020.2.4","MacIntel",60,1920,1080,"",NA,0,9,9,9,1,NA,NA,NA,NA,NA
NA,NA,"Stimuli/Words/word25.jpg","Stimuli/Words/word26.jpg","d",0,"d",1,0.9116,NA,NA,NA,NA,NA,16,"Stimuli/Words/word33.jpg","Stimuli/Words/word33.jpg","s","second",2,0,0.037,0.0382,"2021-12-21_17h10.25.796","01_word_task_central","2020.2.4","MacIntel",60,1920,1080,"",NA,0,10,10,10,1,NA,NA,NA,NA,NA
NA,NA,"Stimuli/Words/word19.jpg","Stimuli/Words/word20.jpg","d",0,"d",1,1.4187,NA,NA,NA,NA,NA,65,"Stimuli/Words/word24.jpg","Stimuli/Words/word23.jpg","d","second",2,0,0.037,0.0382,"2021-12-21_17h10.25.796","01_word_task_central","2020.2.4","MacIntel",60,1920,1080,"",NA,0,11,11,11,1,NA,NA,NA,NA,NA
NA,NA,"Stimuli/Words/word32.jpg","Stimuli/Words/word32.jpg","s",0,"d",0,0.5362,NA,NA,NA,NA,NA,66,"Stimuli/Words/word25.jpg","Stimuli/Words/word26.jpg","d","second",2,0,0.037,0.0382,"2021-12-21_17h10.25.796","01_word_task_central","2020.2.4","MacIntel",60,1920,1080,"",NA,0,12,12,12,1,NA,NA,NA,NA,NA
NA,NA,"Stimuli/Words/word28.jpg","Stimuli/Words/word28.jpg","s",0,"s",1,0.5646,NA,NA,NA,NA,NA,33,"Stimuli/Words/word10.jpg","Stimuli/Words/word10.jpg","s","third",2,0,0.037,0.0382,"2021-12-21_17h10.25.796","01_word_task_central","2020.2.4","MacIntel",60,1920,1080,"",NA,0,13,13,13,1,NA,NA,NA,NA,NA
NA,NA,"Stimuli/Words/word53.jpg","Stimuli/Words/word54.jpg","d",0,"d",1,1.0406,NA,NA,NA,NA,NA,76,"Stimuli/Words/word35.jpg","Stimuli/Words/word36.jpg","d","second",2,0,0.037,0.0382,"2021-12-21_17h10.25.796","01_word_task_central","2020.2.4","MacIntel",60,1920,1080,"",NA,0,14,14,14,1,NA,NA,NA,NA,NA
NA,NA,"Stimuli/Words/word21.jpg","Stimuli/Words/word22.jpg","d",0,"d",1,3.036,NA,NA,NA,NA,NA,92,"Stimuli/Words/word11.jpg","Stimuli/Words/word12.jpg","d","third",2,0,0.037,0.0382,"2021-12-21_17h10.25.796","01_word_task_central","2020.2.4","MacIntel",60,1920,1080,"",NA,0,15,15,15,1,NA,NA,NA,NA,NA
NA,NA,"Stimuli/Words/word24.jpg","Stimuli/Words/word23.jpg","d",0,"d",1,2.0653,NA,NA,NA,NA,NA,18,"Stimuli/Words/word35.jpg","Stimuli/Words/word35.jpg","s","second",2,0,0.037,0.0382,"2021-12-21_17h10.25.796","01_word_task_central","2020.2.4","MacIntel",60,1920,1080,"",NA,0,16,16,16,1,NA,NA,NA,NA,NA
NA,NA,"Stimuli/Words/word35.jpg","Stimuli/Words/word35.jpg","s",0,"d",0,1.2775,NA,NA,NA,NA,NA,49,"Stimuli/Words/word46.jpg","Stimuli/Words/word46.jpg","s","third",2,0,0.037,0.0382,"2021-12-21_17h10.25.796","01_word_task_central","2020.2.4","MacIntel",60,1920,1080,"",NA,0,17,17,17,1,NA,NA,NA,NA,NA
NA,NA,"Stimuli/Words/word52.jpg","Stimuli/Words/word51.jpg","d",0,"d",1,1.5145,NA,NA,NA,NA,NA,11,"Stimuli/Words/word28.jpg","Stimuli/Words/word28.jpg","s","second",2,0,0.037,0.0382,"2021-12-21_17h10.25.796","01_word_task_central","2020.2.4","MacIntel",60,1920,1080,"",NA,0,18,18,18,1,NA,NA,NA,NA,NA
NA,NA,"Stimuli/Words/word46.jpg","Stimuli/Words/word45.jpg","d",0,"d",1,0.5386,NA,NA,NA,NA,NA,85,"Stimuli/Words/word56.jpg","Stimuli/Words/word55.jpg","d","second",2,0,0.037,0.0382,"2021-12-21_17h10.25.796","01_word_task_central","2020.2.4","MacIntel",60,1920,1080,"",NA,0,19,19,19,1,NA,NA,NA,NA,NA
NA,NA,"Stimuli/Words/word23.jpg","Stimuli/Words/word24.jpg","d",0,"d",1,1.7184,NA,NA,NA,NA,NA,24,"Stimuli/Words/word53.jpg","Stimuli/Words/word53.jpg","s","second",2,0,0.037,0.0382,"2021-12-21_17h10.25.796","01_word_task_central","2020.2.4","MacIntel",60,1920,1080,"",NA,0,20,20,20,1,NA,NA,NA,NA,NA
NA,NA,"Stimuli/Words/word35.jpg","Stimuli/Words/word36.jpg","d",0,"d",1,0.7095,NA,NA,NA,NA,NA,113,"Stimuli/Words/word52.jpg","Stimuli/Words/word51.jpg","d","third",2,0,0.037,0.0382,"2021-12-21_17h10.25.796","01_word_task_central","2020.2.4","MacIntel",60,1920,1080,"",NA,0,21,21,21,1,NA,NA,NA,NA,NA
NA,NA,"Stimuli/Words/word46.jpg","Stimuli/Words/word46.jpg","s",0,"s",1,0.9519,NA,NA,NA,NA,NA,25,"Stimuli/Words/word54.jpg","Stimuli/Words/word54.jpg","s","second",2,0,0.037,0.0382,"2021-12-21_17h10.25.796","01_word_task_central","2020.2.4","MacIntel",60,1920,1080,"",NA,0,22,22,22,1,NA,NA,NA,NA,NA
NA,NA,"Stimuli/Words/word33.jpg","Stimuli/Words/word33.jpg","s",0,"d",0,2.5265,NA,NA,NA,NA,NA,110,"Stimuli/Words/word49.jpg","Stimuli/Words/word50.jpg","d","third",2,0,0.037,0.0382,"2021-12-21_17h10.25.796","01_word_task_central","2020.2.4","MacIntel",60,1920,1080,"",NA,0,23,23,23,1,NA,NA,NA,NA,NA
NA,NA,"Stimuli/Words/word56.jpg","Stimuli/Words/word55.jpg","d",0,"d",1,1.7257,NA,NA,NA,NA,NA,1,"Stimuli/Words/word06.jpg","Stimuli/Words/word06.jpg","s","second",2,0,0.037,0.0382,"2021-12-21_17h10.25.796","01_word_task_central","2020.2.4","MacIntel",60,1920,1080,"",NA,0,24,24,24,1,NA,NA,NA,NA,NA
NA,NA,"Stimuli/Words/word54.jpg","Stimuli/Words/word54.jpg","s",0,"d",0,1.8717,NA,NA,NA,NA,NA,34,"Stimuli/Words/word11.jpg","Stimuli/Words/word11.jpg","s","third",2,0,0.037,0.0382,"2021-12-21_17h10.25.796","01_word_task_central","2020.2.4","MacIntel",60,1920,1080,"",NA,0,25,25,25,1,NA,NA,NA,NA,NA
NA,NA,"Stimuli/Words/word10.jpg","Stimuli/Words/word10.jpg","s",0,"s",1,0.4244,NA,NA,NA,NA,NA,62,"Stimuli/Words/word21.jpg","Stimuli/Words/word22.jpg","d","second",2,0,0.037,0.0382,"2021-12-21_17h10.25.796","01_word_task_central","2020.2.4","MacIntel",60,1920,1080,"",NA,0,26,26,26,1,NA,NA,NA,NA,NA
NA,NA,"Stimuli/Words/word45.jpg","Stimuli/Words/word46.jpg","d",0,"d",1,0.5508,NA,NA,NA,NA,NA,82,"Stimuli/Words/word53.jpg","Stimuli/Words/word54.jpg","d","second",2,0,0.037,0.0382,"2021-12-21_17h10.25.796","01_word_task_central","2020.2.4","MacIntel",60,1920,1080,"",NA,0,27,27,27,1,NA,NA,NA,NA,NA
NA,NA,"Stimuli/Words/word37.jpg","Stimuli/Words/word37.jpg","s",0,"s",1,0.5556,NA,NA,NA,NA,NA,100,"Stimuli/Words/word19.jpg","Stimuli/Words/word20.jpg","d","third",2,0,0.037,0.0382,"2021-12-21_17h10.25.796","01_word_task_central","2020.2.4","MacIntel",60,1920,1080,"",NA,0,28,28,28,1,NA,NA,NA,NA,NA
NA,NA,"Stimuli/Words/word10.jpg","Stimuli/Words/word09.jpg","d",0,"s",0,2.0022,NA,NA,NA,NA,NA,106,"Stimuli/Words/word45.jpg","Stimuli/Words/word46.jpg","d","third",2,0,0.037,0.0382,"2021-12-21_17h10.25.796","01_word_task_central","2020.2.4","MacIntel",60,1920,1080,"",NA,0,29,29,29,1,NA,NA,NA,NA,NA
NA,NA,"Stimuli/Words/word11.jpg","Stimuli/Words/word12.jpg","d",0,"d",1,0.5706,NA,NA,NA,NA,NA,91,"Stimuli/Words/word10.jpg","Stimuli/Words/word09.jpg","d","third",2,0,0.037,0.0382,"2021-12-21_17h10.25.796","01_word_task_central","2020.2.4","MacIntel",60,1920,1080,"",NA,0,30,30,30,1,NA,NA,NA,NA,NA
NA,NA,"Stimuli/Words/word49.jpg","Stimuli/Words/word50.jpg","d",0,"d",1,0.5523,NA,NA,NA,NA,NA,86,"Stimuli/Words/word01.jpg","Stimuli/Words/word02.jpg","d","third",2,0,0.037,0.0382,"2021-12-21_17h10.25.796","01_word_task_central","2020.2.4","MacIntel",60,1920,1080,"",NA,0,31,31,31,1,NA,NA,NA,NA,NA
NA,NA,"Stimuli/Words/word31.jpg","Stimuli/Words/word32.jpg","d",0,"d",1,0.6835,NA,NA,NA,NA,NA,37,"Stimuli/Words/word14.jpg","Stimuli/Words/word14.jpg","s","third",2,0,0.037,0.0382,"2021-12-21_17h10.25.796","01_word_task_central","2020.2.4","MacIntel",60,1920,1080,"space",2.7031,NA,NA,NA,NA,NA,0,0,0,0,1
NA,NA,"Stimuli/Words/word39.jpg","Stimuli/Words/word40.jpg","d",0,"d",1,1.0211,NA,NA,NA,NA,NA,58,"Stimuli/Words/word05.jpg","Stimuli/Words/word06.jpg","d","second",2,0,0.037,0.0382,"2021-12-21_17h10.25.796","01_word_task_central","2020.2.4","MacIntel",60,1920,1080,"",NA,NA,NA,NA,NA,NA,0,1,1,1,1
NA,NA,"Stimuli/Words/word42.jpg","Stimuli/Words/word41.jpg","d",0,"d",1,0.4884,NA,NA,NA,NA,NA,46,"Stimuli/Words/word43.jpg","Stimuli/Words/word43.jpg","s","third",2,0,0.037,0.0382,"2021-12-21_17h10.25.796","01_word_task_central","2020.2.4","MacIntel",60,1920,1080,"",NA,NA,NA,NA,NA,NA,0,2,2,2,1
NA,NA,"Stimuli/Words/word28.jpg","Stimuli/Words/word27.jpg","d",0,"s",0,0.5727,NA,NA,NA,NA,NA,52,"Stimuli/Words/word49.jpg","Stimuli/Words/word49.jpg","s","third",2,0,0.037,0.0382,"2021-12-21_17h10.25.796","01_word_task_central","2020.2.4","MacIntel",60,1920,1080,"",NA,NA,NA,NA,NA,NA,0,3,3,3,1
NA,NA,"Stimuli/Words/word29.jpg","Stimuli/Words/word30.jpg","d",0,"d",1,0.8698,NA,NA,NA,NA,NA,69,"Stimuli/Words/word28.jpg","Stimuli/Words/word27.jpg","d","second",2,0,0.037,0.0382,"2021-12-21_17h10.25.796","01_word_task_central","2020.2.4","MacIntel",60,1920,1080,"",NA,NA,NA,NA,NA,NA,0,4,4,4,1
NA,NA,"Stimuli/Words/word17.jpg","Stimuli/Words/word18.jpg","d",0,"d",1,0.6011,NA,NA,NA,NA,NA,80,"Stimuli/Words/word39.jpg","Stimuli/Words/word40.jpg","d","second",2,0,0.037,0.0382,"2021-12-21_17h10.25.796","01_word_task_central","2020.2.4","MacIntel",60,1920,1080,"",NA,NA,NA,NA,NA,NA,0,5,5,5,1
NA,NA,"Stimuli/Words/word05.jpg","Stimuli/Words/word06.jpg","d",0,"d",1,0.4717,NA,NA,NA,NA,NA,112,"Stimuli/Words/word51.jpg","Stimuli/Words/word52.jpg","d","third",2,0,0.037,0.0382,"2021-12-21_17h10.25.796","01_word_task_central","2020.2.4","MacIntel",60,1920,1080,"",NA,NA,NA,NA,NA,NA,0,6,6,6,1
NA,NA,"Stimuli/Words/word40.jpg","Stimuli/Words/word39.jpg","d",0,"d",1,1.1162,NA,NA,NA,NA,NA,40,"Stimuli/Words/word17.jpg","Stimuli/Words/word17.jpg","s","third",2,0,0.037,0.0382,"2021-12-21_17h10.25.796","01_word_task_central","2020.2.4","MacIntel",60,1920,1080,"",NA,NA,NA,NA,NA,NA,0,7,7,7,1
NA,NA,"Stimuli/Words/word39.jpg","Stimuli/Words/word39.jpg","s",0,"d",0,0.5667,NA,NA,NA,NA,NA,6,"Stimuli/Words/word23.jpg","Stimuli/Words/word23.jpg","s","second",2,0,0.037,0.0382,"2021-12-21_17h10.25.796","01_word_task_central","2020.2.4","MacIntel",60,1920,1080,"",NA,NA,NA,NA,NA,NA,0,8,8,8,1
NA,NA,"Stimuli/Words/word29.jpg","Stimuli/Words/word29.jpg","s",0,"s",1,0.3326,NA,NA,NA,NA,NA,70,"Stimuli/Words/word29.jpg","Stimuli/Words/word30.jpg","d","second",2,0,0.037,0.0382,"2021-12-21_17h10.25.796","01_word_task_central","2020.2.4","MacIntel",60,1920,1080,"",NA,NA,NA,NA,NA,NA,0,9,9,9,1
NA,NA,"Stimuli/Words/word51.jpg","Stimuli/Words/word51.jpg","s",0,"s",1,0.7209,NA,NA,NA,NA,NA,111,"Stimuli/Words/word50.jpg","Stimuli/Words/word49.jpg","d","third",2,0,0.037,0.0382,"2021-12-21_17h10.25.796","01_word_task_central","2020.2.4","MacIntel",60,1920,1080,"",NA,NA,NA,NA,NA,NA,0,10,10,10,1
NA,NA,"Stimuli/Words/word02.jpg","Stimuli/Words/word01.jpg","d",0,"d",1,0.5015,NA,NA,NA,NA,NA,67,"Stimuli/Words/word26.jpg","Stimuli/Words/word25.jpg","d","second",2,0,0.037,0.0382,"2021-12-21_17h10.25.796","01_word_task_central","2020.2.4","MacIntel",60,1920,1080,"",NA,NA,NA,NA,NA,NA,0,11,11,11,1
NA,NA,"Stimuli/Words/word18.jpg","Stimuli/Words/word18.jpg","s",0,"s",1,1.0193,NA,NA,NA,NA,NA,94,"Stimuli/Words/word13.jpg","Stimuli/Words/word14.jpg","d","third",2,0,0.037,0.0382,"2021-12-21_17h10.25.796","01_word_task_central","2020.2.4","MacIntel",60,1920,1080,"",NA,NA,NA,NA,NA,NA,0,12,12,12,1
NA,NA,"Stimuli/Words/word06.jpg","Stimuli/Words/word05.jpg","d",0,"d",1,0.9536,NA,NA,NA,NA,NA,68,"Stimuli/Words/word27.jpg","Stimuli/Words/word28.jpg","d","second",2,0,0.037,0.0382,"2021-12-21_17h10.25.796","01_word_task_central","2020.2.4","MacIntel",60,1920,1080,"",NA,NA,NA,NA,NA,NA,0,13,13,13,1
NA,NA,"Stimuli/Words/word58.jpg","Stimuli/Words/word58.jpg","s",0,"s",1,1.7477,NA,NA,NA,NA,NA,57,"Stimuli/Words/word58.jpg","Stimuli/Words/word58.jpg","s","third",2,0,0.037,0.0382,"2021-12-21_17h10.25.796","01_word_task_central","2020.2.4","MacIntel",60,1920,1080,"",NA,NA,NA,NA,NA,NA,0,14,14,14,1
NA,NA,"Stimuli/Words/word50.jpg","Stimuli/Words/word49.jpg","d",0,"d",1,0.8018,NA,NA,NA,NA,NA,23,"Stimuli/Words/word40.jpg","Stimuli/Words/word40.jpg","s","second",2,0,0.037,0.0382,"2021-12-21_17h10.25.796","01_word_task_central","2020.2.4","MacIntel",60,1920,1080,"",NA,NA,NA,NA,NA,NA,0,15,15,15,1
NA,NA,"Stimuli/Words/word47.jpg","Stimuli/Words/word47.jpg","s",0,"d",0,0.6192,NA,NA,NA,NA,NA,41,"Stimuli/Words/word18.jpg","Stimuli/Words/word18.jpg","s","third",2,0,0.037,0.0382,"2021-12-21_17h10.25.796","01_word_task_central","2020.2.4","MacIntel",60,1920,1080,"",NA,NA,NA,NA,NA,NA,0,16,16,16,1
NA,NA,"Stimuli/Words/word27.jpg","Stimuli/Words/word28.jpg","d",0,"d",1,1.3258,NA,NA,NA,NA,NA,99,"Stimuli/Words/word18.jpg","Stimuli/Words/word17.jpg","d","third",2,0,0.037,0.0382,"2021-12-21_17h10.25.796","01_word_task_central","2020.2.4","MacIntel",60,1920,1080,"",NA,NA,NA,NA,NA,NA,0,17,17,17,1
NA,NA,"Stimuli/Words/word56.jpg","Stimuli/Words/word56.jpg","s",0,"s",1,0.5835,NA,NA,NA,NA,NA,60,"Stimuli/Words/word07.jpg","Stimuli/Words/word08.jpg","d","second",2,0,0.037,0.0382,"2021-12-21_17h10.25.796","01_word_task_central","2020.2.4","MacIntel",60,1920,1080,"",NA,NA,NA,NA,NA,NA,0,18,18,18,1
NA,NA,"Stimuli/Words/word23.jpg","Stimuli/Words/word23.jpg","s",0,"s",1,1.304,NA,NA,NA,NA,NA,12,"Stimuli/Words/word29.jpg","Stimuli/Words/word29.jpg","s","second",2,0,0.037,0.0382,"2021-12-21_17h10.25.796","01_word_task_central","2020.2.4","MacIntel",60,1920,1080,"",NA,NA,NA,NA,NA,NA,0,19,19,19,1
NA,NA,"Stimuli/Words/word13.jpg","Stimuli/Words/word13.jpg","s",0,"s",1,0.8176,NA,NA,NA,NA,NA,87,"Stimuli/Words/word02.jpg","Stimuli/Words/word01.jpg","d","third",2,0,0.037,0.0382,"2021-12-21_17h10.25.796","01_word_task_central","2020.2.4","MacIntel",60,1920,1080,"",NA,NA,NA,NA,NA,NA,0,20,20,20,1
NA,NA,"Stimuli/Words/word51.jpg","Stimuli/Words/word52.jpg","d",0,"d",1,0.5908,NA,NA,NA,NA,NA,72,"Stimuli/Words/word31.jpg","Stimuli/Words/word32.jpg","d","second",2,0,0.037,0.0382,"2021-12-21_17h10.25.796","01_word_task_central","2020.2.4","MacIntel",60,1920,1080,"",NA,NA,NA,NA,NA,NA,0,21,21,21,1
NA,NA,"Stimuli/Words/word37.jpg","Stimuli/Words/word38.jpg","d",0,"d",1,0.7078,NA,NA,NA,NA,NA,78,"Stimuli/Words/word37.jpg","Stimuli/Words/word38.jpg","d","second",2,0,0.037,0.0382,"2021-12-21_17h10.25.796","01_word_task_central","2020.2.4","MacIntel",60,1920,1080,"",NA,NA,NA,NA,NA,NA,0,22,22,22,1
NA,NA,"Stimuli/Words/word49.jpg","Stimuli/Words/word49.jpg","s",0,"s",1,0.5595,NA,NA,NA,NA,NA,50,"Stimuli/Words/word47.jpg","Stimuli/Words/word47.jpg","s","third",2,0,0.037,0.0382,"2021-12-21_17h10.25.796","01_word_task_central","2020.2.4","MacIntel",60,1920,1080,"",NA,NA,NA,NA,NA,NA,0,23,23,23,1
NA,NA,"Stimuli/Words/word43.jpg","Stimuli/Words/word43.jpg","s",0,"s",1,1.4532,NA,NA,NA,NA,NA,81,"Stimuli/Words/word40.jpg","Stimuli/Words/word39.jpg","d","second",2,0,0.037,0.0382,"2021-12-21_17h10.25.796","01_word_task_central","2020.2.4","MacIntel",60,1920,1080,"",NA,NA,NA,NA,NA,NA,0,24,24,24,1
NA,NA,"Stimuli/Words/word14.jpg","Stimuli/Words/word14.jpg","s",0,"s",1,0.6054,NA,NA,NA,NA,NA,22,"Stimuli/Words/word39.jpg","Stimuli/Words/word39.jpg","s","second",2,0,0.037,0.0382,"2021-12-21_17h10.25.796","01_word_task_central","2020.2.4","MacIntel",60,1920,1080,"",NA,NA,NA,NA,NA,NA,0,25,25,25,1
NA,NA,"Stimuli/Words/word13.jpg","Stimuli/Words/word14.jpg","d",0,"d",1,0.6604,NA,NA,NA,NA,NA,103,"Stimuli/Words/word42.jpg","Stimuli/Words/word41.jpg","d","third",2,0,0.037,0.0382,"2021-12-21_17h10.25.796","01_word_task_central","2020.2.4","MacIntel",60,1920,1080,"",NA,NA,NA,NA,NA,NA,0,26,26,26,1
NA,NA,"Stimuli/Words/word07.jpg","Stimuli/Words/word08.jpg","d",0,"d",1,1.0549,NA,NA,NA,NA,NA,59,"Stimuli/Words/word06.jpg","Stimuli/Words/word05.jpg","d","second",2,0,0.037,0.0382,"2021-12-21_17h10.25.796","01_word_task_central","2020.2.4","MacIntel",60,1920,1080,"",NA,NA,NA,NA,NA,NA,0,27,27,27,1
NA,NA,"Stimuli/Words/word18.jpg","Stimuli/Words/word17.jpg","d",0,"d",1,0.9406,NA,NA,NA,NA,NA,54,"Stimuli/Words/word51.jpg","Stimuli/Words/word51.jpg","s","third",2,0,0.037,0.0382,"2021-12-21_17h10.25.796","01_word_task_central","2020.2.4","MacIntel",60,1920,1080,"",NA,NA,NA,NA,NA,NA,0,28,28,28,1
NA,NA,"Stimuli/Words/word26.jpg","Stimuli/Words/word25.jpg","d",0,"d",1,0.6677,NA,NA,NA,NA,NA,36,"Stimuli/Words/word13.jpg","Stimuli/Words/word13.jpg","s","third",2,0,0.037,0.0382,"2021-12-21_17h10.25.796","01_word_task_central","2020.2.4","MacIntel",60,1920,1080,"",NA,NA,NA,NA,NA,NA,0,29,29,29,1
NA,NA,"Stimuli/Words/word40.jpg","Stimuli/Words/word40.jpg","s",0,"s",1,0.9856,NA,NA,NA,NA,NA,27,"Stimuli/Words/word56.jpg","Stimuli/Words/word56.jpg","s","second",2,0,0.037,0.0382,"2021-12-21_17h10.25.796","01_word_task_central","2020.2.4","MacIntel",60,1920,1080,"",NA,NA,NA,NA,NA,NA,0,30,30,30,1
NA,NA,"Stimuli/Words/word17.jpg","Stimuli/Words/word17.jpg","s",0,"s",1,0.7668,NA,NA,NA,NA,NA,98,"Stimuli/Words/word17.jpg","Stimuli/Words/word18.jpg","d","third",2,0,0.037,0.0382,"2021-12-21_17h10.25.796","01_word_task_central","2020.2.4","MacIntel",60,1920,1080,"",NA,NA,NA,NA,NA,NA,0,31,31,31,1
NA,NA,"","","",NA,"",NA,NA,NA,NA,NA,NA,NA,NA,"","","","",2,0,0.037,0.0382,"2021-12-21_17h10.25.796","01_word_task_central","2020.2.4","MacIntel",60,1920,1080,"space",3.1552,NA,NA,NA,NA,NA,NA,NA,NA,NA,NA
