"X.Scale","Y.Scale","image1","image2","corr_acc","xPosition","FW_resp.keys","FW_resp.corr","FW_resp.rt","word_loop_set1.thisRepN","word_loop_set1.thisTrialN","word_loop_set1.thisN","word_loop_set1.thisIndex","word_loop_set1.ran","trialID","imFile","imFile2","corr","diff","position","screen","x_scale","y_scale","date","expName","psychopyVersion","OS","frameRate","xResolution","yResolution","key_resp_3.keys","key_resp_3.rt","word_loop_set2.thisRepN","word_loop_set2.thisTrialN","word_loop_set2.thisN","word_loop_set2.thisIndex","word_loop_set2.ran","word_loop_set3.thisRepN","word_loop_set3.thisTrialN","word_loop_set3.thisN","word_loop_set3.thisIndex","word_loop_set3.ran"
0.0559,0.0566,"Stimuli/Words/word46.jpg","Stimuli/Words/word46.jpg","s",0,"s",1,0.8634,0,0,0,0,1,52,"Stimuli/Words/word49.jpg","Stimuli/Words/word49.jpg","s","third",2,0,0.0559,0.0566,"2021-12-22_09h44.41.978","01_word_task_central","2020.2.4","Win32",60,1280,720,"",NA,NA,NA,NA,NA,NA,NA,NA,NA,NA,NA
NA,NA,"Stimuli/Words/word35.jpg","Stimuli/Words/word35.jpg","s",0,"s",1,0.7006,0,1,1,1,1,97,"Stimuli/Words/word16.jpg","Stimuli/Words/word15.jpg","d","third",2,0,0.0559,0.0566,"2021-12-22_09h44.41.978","01_word_task_central","2020.2.4","Win32",60,1280,720,"",NA,NA,NA,NA,NA,NA,NA,NA,NA,NA,NA
NA,NA,"Stimuli/Words/word12.jpg","Stimuli/Words/word11.jpg","d",0,"d",1,0.7199,0,2,2,2,1,5,"Stimuli/Words/word22.jpg","Stimuli/Words/word22.jpg","s","second",2,0,0.0559,0.0566,"2021-12-22_09h44.41.978","01_word_task_central","2020.2.4","Win32",60,1280,720,"",NA,NA,NA,NA,NA,NA,NA,NA,NA,NA,NA
NA,NA,"Stimuli/Words/word09.jpg","Stimuli/Words/word09.jpg","s",0,"s",1,0.7374,0,3,3,3,1,21,"Stimuli/Words/word38.jpg","Stimuli/Words/word38.jpg","s","second",2,0,0.0559,0.0566,"2021-12-22_09h44.41.978","01_word_task_central","2020.2.4","Win32",60,1280,720,"",NA,NA,NA,NA,NA,NA,NA,NA,NA,NA,NA
NA,NA,"Stimuli/Words/word27.jpg","Stimuli/Words/word28.jpg","d",0,"d",1,0.689,0,4,4,4,1,38,"Stimuli/Words/word15.jpg","Stimuli/Words/word15.jpg","s","third",2,0,0.0559,0.0566,"2021-12-22_09h44.41.978","01_word_task_central","2020.2.4","Win32",60,1280,720,"",NA,NA,NA,NA,NA,NA,NA,NA,NA,NA,NA
NA,NA,"Stimuli/Words/word17.jpg","Stimuli/Words/word17.jpg","s",0,"d",0,0.6983,0,5,5,5,1,49,"Stimuli/Words/word46.jpg","Stimuli/Words/word46.jpg","s","third",2,0,0.0559,0.0566,"2021-12-22_09h44.41.978","01_word_task_central","2020.2.4","Win32",60,1280,720,"",NA,NA,NA,NA,NA,NA,NA,NA,NA,NA,NA
NA,NA,"Stimuli/Words/word35.jpg","Stimuli/Words/word36.jpg","d",0,"d",1,0.8524,0,6,6,6,1,39,"Stimuli/Words/word16.jpg","Stimuli/Words/word16.jpg","s","third",2,0,0.0559,0.0566,"2021-12-22_09h44.41.978","01_word_task_central","2020.2.4","Win32",60,1280,720,"",NA,NA,NA,NA,NA,NA,NA,NA,NA,NA,NA
NA,NA,"Stimuli/Words/word48.jpg","Stimuli/Words/word48.jpg","s",0,"s",1,0.8629,0,7,7,7,1,43,"Stimuli/Words/word20.jpg","Stimuli/Words/word20.jpg","s","third",2,0,0.0559,0.0566,"2021-12-22_09h44.41.978","01_word_task_central","2020.2.4","Win32",60,1280,720,"",NA,NA,NA,NA,NA,NA,NA,NA,NA,NA,NA
NA,NA,"Stimuli/Words/word58.jpg","Stimuli/Words/word57.jpg","d",0,"d",1,0.8128,0,8,8,8,1,10,"Stimuli/Words/word27.jpg","Stimuli/Words/word27.jpg","s","second",2,0,0.0559,0.0566,"2021-12-22_09h44.41.978","01_word_task_central","2020.2.4","Win32",60,1280,720,"",NA,NA,NA,NA,NA,NA,NA,NA,NA,NA,NA
NA,NA,"Stimuli/Words/word16.jpg","Stimuli/Words/word16.jpg","s",0,"d",0,0.9489,0,9,9,9,1,72,"Stimuli/Words/word31.jpg","Stimuli/Words/word32.jpg","d","second",2,0,0.0559,0.0566,"2021-12-22_09h44.41.978","01_word_task_central","2020.2.4","Win32",60,1280,720,"",NA,NA,NA,NA,NA,NA,NA,NA,NA,NA,NA
NA,NA,"Stimuli/Words/word13.jpg","Stimuli/Words/word13.jpg","s",0,"s",1,0.679,0,10,10,10,1,55,"Stimuli/Words/word52.jpg","Stimuli/Words/word52.jpg","s","third",2,0,0.0559,0.0566,"2021-12-22_09h44.41.978","01_word_task_central","2020.2.4","Win32",60,1280,720,"",NA,NA,NA,NA,NA,NA,NA,NA,NA,NA,NA
NA,NA,"Stimuli/Words/word49.jpg","Stimuli/Words/word49.jpg","s",0,"s",1,0.9207,0,11,11,11,1,18,"Stimuli/Words/word35.jpg","Stimuli/Words/word35.jpg","s","second",2,0,0.0559,0.0566,"2021-12-22_09h44.41.978","01_word_task_central","2020.2.4","Win32",60,1280,720,"",NA,NA,NA,NA,NA,NA,NA,NA,NA,NA,NA
NA,NA,"Stimuli/Words/word15.jpg","Stimuli/Words/word15.jpg","s",0,"s",1,0.9536,0,12,12,12,1,115,"Stimuli/Words/word58.jpg","Stimuli/Words/word57.jpg","d","third",2,0,0.0559,0.0566,"2021-12-22_09h44.41.978","01_word_task_central","2020.2.4","Win32",60,1280,720,"",NA,NA,NA,NA,NA,NA,NA,NA,NA,NA,NA
NA,NA,"Stimuli/Words/word55.jpg","Stimuli/Words/word56.jpg","d",0,"d",1,1.0007,0,13,13,13,1,29,"Stimuli/Words/word02.jpg","Stimuli/Words/word02.jpg","s","third",2,0,0.0559,0.0566,"2021-12-22_09h44.41.978","01_word_task_central","2020.2.4","Win32",60,1280,720,"",NA,NA,NA,NA,NA,NA,NA,NA,NA,NA,NA
NA,NA,"Stimuli/Words/word01.jpg","Stimuli/Words/word02.jpg","d",0,"d",1,1.0062,0,14,14,14,1,93,"Stimuli/Words/word12.jpg","Stimuli/Words/word11.jpg","d","third",2,0,0.0559,0.0566,"2021-12-22_09h44.41.978","01_word_task_central","2020.2.4","Win32",60,1280,720,"",NA,NA,NA,NA,NA,NA,NA,NA,NA,NA,NA
NA,NA,"Stimuli/Words/word52.jpg","Stimuli/Words/word52.jpg","s",0,"s",1,1.075,0,15,15,15,1,32,"Stimuli/Words/word09.jpg","Stimuli/Words/word09.jpg","s","third",2,0,0.0559,0.0566,"2021-12-22_09h44.41.978","01_word_task_central","2020.2.4","Win32",60,1280,720,"",NA,NA,NA,NA,NA,NA,NA,NA,NA,NA,NA
NA,NA,"Stimuli/Words/word36.jpg","Stimuli/Words/word35.jpg","d",0,"d",1,0.6828,0,16,16,16,1,94,"Stimuli/Words/word13.jpg","Stimuli/Words/word14.jpg","d","third",2,0,0.0559,0.0566,"2021-12-22_09h44.41.978","01_word_task_central","2020.2.4","Win32",60,1280,720,"",NA,NA,NA,NA,NA,NA,NA,NA,NA,NA,NA
NA,NA,"Stimuli/Words/word37.jpg","Stimuli/Words/word38.jpg","d",0,"d",1,0.7663,0,17,17,17,1,90,"Stimuli/Words/word09.jpg","Stimuli/Words/word10.jpg","d","third",2,0,0.0559,0.0566,"2021-12-22_09h44.41.978","01_word_task_central","2020.2.4","Win32",60,1280,720,"",NA,NA,NA,NA,NA,NA,NA,NA,NA,NA,NA
NA,NA,"Stimuli/Words/word22.jpg","Stimuli/Words/word22.jpg","s",0,"s",1,0.7857,0,18,18,18,1,36,"Stimuli/Words/word13.jpg","Stimuli/Words/word13.jpg","s","third",2,0,0.0559,0.0566,"2021-12-22_09h44.41.978","01_word_task_central","2020.2.4","Win32",60,1280,720,"",NA,NA,NA,NA,NA,NA,NA,NA,NA,NA,NA
NA,NA,"Stimuli/Words/word09.jpg","Stimuli/Words/word10.jpg","d",0,"d",1,0.654,0,19,19,19,1,78,"Stimuli/Words/word37.jpg","Stimuli/Words/word38.jpg","d","second",2,0,0.0559,0.0566,"2021-12-22_09h44.41.978","01_word_task_central","2020.2.4","Win32",60,1280,720,"",NA,NA,NA,NA,NA,NA,NA,NA,NA,NA,NA
NA,NA,"Stimuli/Words/word27.jpg","Stimuli/Words/word27.jpg","s",0,"s",1,0.942,0,20,20,20,1,51,"Stimuli/Words/word48.jpg","Stimuli/Words/word48.jpg","s","third",2,0,0.0559,0.0566,"2021-12-22_09h44.41.978","01_word_task_central","2020.2.4","Win32",60,1280,720,"",NA,NA,NA,NA,NA,NA,NA,NA,NA,NA,NA
NA,NA,"Stimuli/Words/word31.jpg","Stimuli/Words/word32.jpg","d",0,"d",1,0.8809,0,21,21,21,1,108,"Stimuli/Words/word47.jpg","Stimuli/Words/word48.jpg","d","third",2,0,0.0559,0.0566,"2021-12-22_09h44.41.978","01_word_task_central","2020.2.4","Win32",60,1280,720,"",NA,NA,NA,NA,NA,NA,NA,NA,NA,NA,NA
NA,NA,"Stimuli/Words/word50.jpg","Stimuli/Words/word50.jpg","s",0,"s",1,1.0022,0,22,22,22,1,84,"Stimuli/Words/word55.jpg","Stimuli/Words/word56.jpg","d","second",2,0,0.0559,0.0566,"2021-12-22_09h44.41.978","01_word_task_central","2020.2.4","Win32",60,1280,720,"",NA,NA,NA,NA,NA,NA,NA,NA,NA,NA,NA
NA,NA,"Stimuli/Words/word42.jpg","Stimuli/Words/word42.jpg","s",0,"s",1,0.9267,0,23,23,23,1,76,"Stimuli/Words/word35.jpg","Stimuli/Words/word36.jpg","d","second",2,0,0.0559,0.0566,"2021-12-22_09h44.41.978","01_word_task_central","2020.2.4","Win32",60,1280,720,"",NA,NA,NA,NA,NA,NA,NA,NA,NA,NA,NA
NA,NA,"Stimuli/Words/word16.jpg","Stimuli/Words/word15.jpg","d",0,"s",0,0.6677,0,24,24,24,1,77,"Stimuli/Words/word36.jpg","Stimuli/Words/word35.jpg","d","second",2,0,0.0559,0.0566,"2021-12-22_09h44.41.978","01_word_task_central","2020.2.4","Win32",60,1280,720,"",NA,NA,NA,NA,NA,NA,NA,NA,NA,NA,NA
NA,NA,"Stimuli/Words/word47.jpg","Stimuli/Words/word48.jpg","d",0,"s",0,1.169,0,25,25,25,1,45,"Stimuli/Words/word42.jpg","Stimuli/Words/word42.jpg","s","third",2,0,0.0559,0.0566,"2021-12-22_09h44.41.978","01_word_task_central","2020.2.4","Win32",60,1280,720,"",NA,NA,NA,NA,NA,NA,NA,NA,NA,NA,NA
NA,NA,"Stimuli/Words/word13.jpg","Stimuli/Words/word14.jpg","d",0,"d",1,0.6863,0,26,26,26,1,59,"Stimuli/Words/word06.jpg","Stimuli/Words/word05.jpg","d","second",2,0,0.0559,0.0566,"2021-12-22_09h44.41.978","01_word_task_central","2020.2.4","Win32",60,1280,720,"",NA,NA,NA,NA,NA,NA,NA,NA,NA,NA,NA
NA,NA,"Stimuli/Words/word02.jpg","Stimuli/Words/word02.jpg","s",0,"d",0,1.23,0,27,27,27,1,40,"Stimuli/Words/word17.jpg","Stimuli/Words/word17.jpg","s","third",2,0,0.0559,0.0566,"2021-12-22_09h44.41.978","01_word_task_central","2020.2.4","Win32",60,1280,720,"",NA,NA,NA,NA,NA,NA,NA,NA,NA,NA,NA
NA,NA,"Stimuli/Words/word50.jpg","Stimuli/Words/word49.jpg","d",0,"d",1,1.025,0,28,28,28,1,53,"Stimuli/Words/word50.jpg","Stimuli/Words/word50.jpg","s","third",2,0,0.0559,0.0566,"2021-12-22_09h44.41.978","01_word_task_central","2020.2.4","Win32",60,1280,720,"",NA,NA,NA,NA,NA,NA,NA,NA,NA,NA,NA
NA,NA,"Stimuli/Words/word38.jpg","Stimuli/Words/word38.jpg","s",0,"s",1,1.2425,0,29,29,29,1,111,"Stimuli/Words/word50.jpg","Stimuli/Words/word49.jpg","d","third",2,0,0.0559,0.0566,"2021-12-22_09h44.41.978","01_word_task_central","2020.2.4","Win32",60,1280,720,"",NA,NA,NA,NA,NA,NA,NA,NA,NA,NA,NA
NA,NA,"Stimuli/Words/word20.jpg","Stimuli/Words/word20.jpg","s",0,"s",1,0.486,0,30,30,30,1,68,"Stimuli/Words/word27.jpg","Stimuli/Words/word28.jpg","d","second",2,0,0.0559,0.0566,"2021-12-22_09h44.41.978","01_word_task_central","2020.2.4","Win32",60,1280,720,"",NA,NA,NA,NA,NA,NA,NA,NA,NA,NA,NA
NA,NA,"Stimuli/Words/word06.jpg","Stimuli/Words/word05.jpg","d",0,"d",1,1.3643,0,31,31,31,1,86,"Stimuli/Words/word01.jpg","Stimuli/Words/word02.jpg","d","third",2,0,0.0559,0.0566,"2021-12-22_09h44.41.978","01_word_task_central","2020.2.4","Win32",60,1280,720,"",NA,NA,NA,NA,NA,NA,NA,NA,NA,NA,NA
NA,NA,"Stimuli/Words/word43.jpg","Stimuli/Words/word44.jpg","d",0,"d",1,0.817,NA,NA,NA,NA,NA,99,"Stimuli/Words/word18.jpg","Stimuli/Words/word17.jpg","d","third",2,0,0.0559,0.0566,"2021-12-22_09h44.41.978","01_word_task_central","2020.2.4","Win32",60,1280,720,"space",17.5403,0,0,0,0,1,NA,NA,NA,NA,NA
NA,NA,"Stimuli/Words/word06.jpg","Stimuli/Words/word06.jpg","s",0,"d",0,0.9026,NA,NA,NA,NA,NA,9,"Stimuli/Words/word26.jpg","Stimuli/Words/word26.jpg","s","second",2,0,0.0559,0.0566,"2021-12-22_09h44.41.978","01_word_task_central","2020.2.4","Win32",60,1280,720,"",NA,0,1,1,1,1,NA,NA,NA,NA,NA
NA,NA,"Stimuli/Words/word26.jpg","Stimuli/Words/word26.jpg","s",0,"s",1,0.868,NA,NA,NA,NA,NA,102,"Stimuli/Words/word41.jpg","Stimuli/Words/word42.jpg","d","third",2,0,0.0559,0.0566,"2021-12-22_09h44.41.978","01_word_task_central","2020.2.4","Win32",60,1280,720,"",NA,0,2,2,2,1,NA,NA,NA,NA,NA
NA,NA,"Stimuli/Words/word10.jpg","Stimuli/Words/word10.jpg","s",0,"s",1,1.1001,NA,NA,NA,NA,NA,25,"Stimuli/Words/word54.jpg","Stimuli/Words/word54.jpg","s","second",2,0,0.0559,0.0566,"2021-12-22_09h44.41.978","01_word_task_central","2020.2.4","Win32",60,1280,720,"",NA,0,3,3,3,1,NA,NA,NA,NA,NA
NA,NA,"Stimuli/Words/word33.jpg","Stimuli/Words/word34.jpg","d",0,"d",1,0.8558,NA,NA,NA,NA,NA,61,"Stimuli/Words/word08.jpg","Stimuli/Words/word07.jpg","d","second",2,0,0.0559,0.0566,"2021-12-22_09h44.41.978","01_word_task_central","2020.2.4","Win32",60,1280,720,"",NA,0,4,4,4,1,NA,NA,NA,NA,NA
NA,NA,"Stimuli/Words/word28.jpg","Stimuli/Words/word28.jpg","s",0,"s",1,0.7151,NA,NA,NA,NA,NA,85,"Stimuli/Words/word56.jpg","Stimuli/Words/word55.jpg","d","second",2,0,0.0559,0.0566,"2021-12-22_09h44.41.978","01_word_task_central","2020.2.4","Win32",60,1280,720,"",NA,0,5,5,5,1,NA,NA,NA,NA,NA
NA,NA,"Stimuli/Words/word11.jpg","Stimuli/Words/word11.jpg","s",0,"s",1,1.3004,NA,NA,NA,NA,NA,81,"Stimuli/Words/word40.jpg","Stimuli/Words/word39.jpg","d","second",2,0,0.0559,0.0566,"2021-12-22_09h44.41.978","01_word_task_central","2020.2.4","Win32",60,1280,720,"",NA,0,6,6,6,1,NA,NA,NA,NA,NA
NA,NA,"Stimuli/Words/word51.jpg","Stimuli/Words/word51.jpg","s",0,"d",0,0.6981,NA,NA,NA,NA,NA,30,"Stimuli/Words/word03.jpg","Stimuli/Words/word03.jpg","s","third",2,0,0.0559,0.0566,"2021-12-22_09h44.41.978","01_word_task_central","2020.2.4","Win32",60,1280,720,"",NA,0,7,7,7,1,NA,NA,NA,NA,NA
NA,NA,"Stimuli/Words/word45.jpg","Stimuli/Words/word45.jpg","s",0,"s",1,0.685,NA,NA,NA,NA,NA,50,"Stimuli/Words/word47.jpg","Stimuli/Words/word47.jpg","s","third",2,0,0.0559,0.0566,"2021-12-22_09h44.41.978","01_word_task_central","2020.2.4","Win32",60,1280,720,"",NA,0,8,8,8,1,NA,NA,NA,NA,NA
NA,NA,"Stimuli/Words/word40.jpg","Stimuli/Words/word39.jpg","d",0,"d",1,0.6816,NA,NA,NA,NA,NA,6,"Stimuli/Words/word23.jpg","Stimuli/Words/word23.jpg","s","second",2,0,0.0559,0.0566,"2021-12-22_09h44.41.978","01_word_task_central","2020.2.4","Win32",60,1280,720,"",NA,0,9,9,9,1,NA,NA,NA,NA,NA
NA,NA,"Stimuli/Words/word24.jpg","Stimuli/Words/word24.jpg","s",0,"s",1,0.9388,NA,NA,NA,NA,NA,34,"Stimuli/Words/word11.jpg","Stimuli/Words/word11.jpg","s","third",2,0,0.0559,0.0566,"2021-12-22_09h44.41.978","01_word_task_central","2020.2.4","Win32",60,1280,720,"",NA,0,10,10,10,1,NA,NA,NA,NA,NA
NA,NA,"Stimuli/Words/word25.jpg","Stimuli/Words/word25.jpg","s",0,"s",1,0.939,NA,NA,NA,NA,NA,100,"Stimuli/Words/word19.jpg","Stimuli/Words/word20.jpg","d","third",2,0,0.0559,0.0566,"2021-12-22_09h44.41.978","01_word_task_central","2020.2.4","Win32",60,1280,720,"",NA,0,11,11,11,1,NA,NA,NA,NA,NA
NA,NA,"Stimuli/Words/word18.jpg","Stimuli/Words/word17.jpg","d",0,"d",1,0.9016,NA,NA,NA,NA,NA,66,"Stimuli/Words/word25.jpg","Stimuli/Words/word26.jpg","d","second",2,0,0.0559,0.0566,"2021-12-22_09h44.41.978","01_word_task_central","2020.2.4","Win32",60,1280,720,"",NA,0,12,12,12,1,NA,NA,NA,NA,NA
NA,NA,"Stimuli/Words/word08.jpg","Stimuli/Words/word07.jpg","d",0,"d",1,0.746,NA,NA,NA,NA,NA,63,"Stimuli/Words/word22.jpg","Stimuli/Words/word21.jpg","d","second",2,0,0.0559,0.0566,"2021-12-22_09h44.41.978","01_word_task_central","2020.2.4","Win32",60,1280,720,"",NA,0,13,13,13,1,NA,NA,NA,NA,NA
NA,NA,"Stimuli/Words/word08.jpg","Stimuli/Words/word08.jpg","s",0,"s",1,1.1028,NA,NA,NA,NA,NA,73,"Stimuli/Words/word32.jpg","Stimuli/Words/word31.jpg","d","second",2,0,0.0559,0.0566,"2021-12-22_09h44.41.978","01_word_task_central","2020.2.4","Win32",60,1280,720,"",NA,0,14,14,14,1,NA,NA,NA,NA,NA
NA,NA,"Stimuli/Words/word41.jpg","Stimuli/Words/word41.jpg","s",0,"s",1,0.9076,NA,NA,NA,NA,NA,107,"Stimuli/Words/word46.jpg","Stimuli/Words/word45.jpg","d","third",2,0,0.0559,0.0566,"2021-12-22_09h44.41.978","01_word_task_central","2020.2.4","Win32",60,1280,720,"",NA,0,15,15,15,1,NA,NA,NA,NA,NA
NA,NA,"Stimuli/Words/word54.jpg","Stimuli/Words/word54.jpg","s",0,"s",1,0.7928,NA,NA,NA,NA,NA,15,"Stimuli/Words/word32.jpg","Stimuli/Words/word32.jpg","s","second",2,0,0.0559,0.0566,"2021-12-22_09h44.41.978","01_word_task_central","2020.2.4","Win32",60,1280,720,"",NA,0,16,16,16,1,NA,NA,NA,NA,NA
NA,NA,"Stimuli/Words/word32.jpg","Stimuli/Words/word32.jpg","s",0,"s",1,0.925,NA,NA,NA,NA,NA,44,"Stimuli/Words/word41.jpg","Stimuli/Words/word41.jpg","s","third",2,0,0.0559,0.0566,"2021-12-22_09h44.41.978","01_word_task_central","2020.2.4","Win32",60,1280,720,"",NA,0,17,17,17,1,NA,NA,NA,NA,NA
NA,NA,"Stimuli/Words/word51.jpg","Stimuli/Words/word52.jpg","d",0,"s",0,0.9356,NA,NA,NA,NA,NA,48,"Stimuli/Words/word45.jpg","Stimuli/Words/word45.jpg","s","third",2,0,0.0559,0.0566,"2021-12-22_09h44.41.978","01_word_task_central","2020.2.4","Win32",60,1280,720,"",NA,0,18,18,18,1,NA,NA,NA,NA,NA
NA,NA,"Stimuli/Words/word03.jpg","Stimuli/Words/word03.jpg","s",0,"s",1,0.7063,NA,NA,NA,NA,NA,54,"Stimuli/Words/word51.jpg","Stimuli/Words/word51.jpg","s","third",2,0,0.0559,0.0566,"2021-12-22_09h44.41.978","01_word_task_central","2020.2.4","Win32",60,1280,720,"",NA,0,19,19,19,1,NA,NA,NA,NA,NA
NA,NA,"Stimuli/Words/word47.jpg","Stimuli/Words/word47.jpg","s",0,"s",1,0.7192,NA,NA,NA,NA,NA,33,"Stimuli/Words/word10.jpg","Stimuli/Words/word10.jpg","s","third",2,0,0.0559,0.0566,"2021-12-22_09h44.41.978","01_word_task_central","2020.2.4","Win32",60,1280,720,"",NA,0,20,20,20,1,NA,NA,NA,NA,NA
NA,NA,"Stimuli/Words/word56.jpg","Stimuli/Words/word55.jpg","d",0,"d",1,0.9632,NA,NA,NA,NA,NA,74,"Stimuli/Words/word33.jpg","Stimuli/Words/word34.jpg","d","second",2,0,0.0559,0.0566,"2021-12-22_09h44.41.978","01_word_task_central","2020.2.4","Win32",60,1280,720,"",NA,0,21,21,21,1,NA,NA,NA,NA,NA
NA,NA,"Stimuli/Words/word25.jpg","Stimuli/Words/word26.jpg","d",0,"d",1,0.8806,NA,NA,NA,NA,NA,7,"Stimuli/Words/word24.jpg","Stimuli/Words/word24.jpg","s","second",2,0,0.0559,0.0566,"2021-12-22_09h44.41.978","01_word_task_central","2020.2.4","Win32",60,1280,720,"",NA,0,22,22,22,1,NA,NA,NA,NA,NA
NA,NA,"Stimuli/Words/word19.jpg","Stimuli/Words/word20.jpg","d",0,"d",1,1.1349,NA,NA,NA,NA,NA,104,"Stimuli/Words/word43.jpg","Stimuli/Words/word44.jpg","d","third",2,0,0.0559,0.0566,"2021-12-22_09h44.41.978","01_word_task_central","2020.2.4","Win32",60,1280,720,"",NA,0,23,23,23,1,NA,NA,NA,NA,NA
NA,NA,"Stimuli/Words/word30.jpg","Stimuli/Words/word30.jpg","s",0,"d",0,0.9572,NA,NA,NA,NA,NA,11,"Stimuli/Words/word28.jpg","Stimuli/Words/word28.jpg","s","second",2,0,0.0559,0.0566,"2021-12-22_09h44.41.978","01_word_task_central","2020.2.4","Win32",60,1280,720,"",NA,0,24,24,24,1,NA,NA,NA,NA,NA
NA,NA,"Stimuli/Words/word32.jpg","Stimuli/Words/word31.jpg","d",0,"d",1,0.7065,NA,NA,NA,NA,NA,8,"Stimuli/Words/word25.jpg","Stimuli/Words/word25.jpg","s","second",2,0,0.0559,0.0566,"2021-12-22_09h44.41.978","01_word_task_central","2020.2.4","Win32",60,1280,720,"",NA,0,25,25,25,1,NA,NA,NA,NA,NA
NA,NA,"Stimuli/Words/word23.jpg","Stimuli/Words/word23.jpg","s",0,"d",0,1.128,NA,NA,NA,NA,NA,3,"Stimuli/Words/word08.jpg","Stimuli/Words/word08.jpg","s","second",2,0,0.0559,0.0566,"2021-12-22_09h44.41.978","01_word_task_central","2020.2.4","Win32",60,1280,720,"",NA,0,26,26,26,1,NA,NA,NA,NA,NA
NA,NA,"Stimuli/Words/word46.jpg","Stimuli/Words/word45.jpg","d",0,"d",1,0.9047,NA,NA,NA,NA,NA,87,"Stimuli/Words/word02.jpg","Stimuli/Words/word01.jpg","d","third",2,0,0.0559,0.0566,"2021-12-22_09h44.41.978","01_word_task_central","2020.2.4","Win32",60,1280,720,"",NA,0,27,27,27,1,NA,NA,NA,NA,NA
NA,NA,"Stimuli/Words/word22.jpg","Stimuli/Words/word21.jpg","d",0,"s",0,0.8299,NA,NA,NA,NA,NA,1,"Stimuli/Words/word06.jpg","Stimuli/Words/word06.jpg","s","second",2,0,0.0559,0.0566,"2021-12-22_09h44.41.978","01_word_task_central","2020.2.4","Win32",60,1280,720,"",NA,0,28,28,28,1,NA,NA,NA,NA,NA
NA,NA,"Stimuli/Words/word31.jpg","Stimuli/Words/word31.jpg","s",0,"s",1,1.0477,NA,NA,NA,NA,NA,112,"Stimuli/Words/word51.jpg","Stimuli/Words/word52.jpg","d","third",2,0,0.0559,0.0566,"2021-12-22_09h44.41.978","01_word_task_central","2020.2.4","Win32",60,1280,720,"",NA,0,29,29,29,1,NA,NA,NA,NA,NA
NA,NA,"Stimuli/Words/word02.jpg","Stimuli/Words/word01.jpg","d",0,"s",0,0.851,NA,NA,NA,NA,NA,13,"Stimuli/Words/word30.jpg","Stimuli/Words/word30.jpg","s","second",2,0,0.0559,0.0566,"2021-12-22_09h44.41.978","01_word_task_central","2020.2.4","Win32",60,1280,720,"",NA,0,30,30,30,1,NA,NA,NA,NA,NA
NA,NA,"Stimuli/Words/word41.jpg","Stimuli/Words/word42.jpg","d",0,"d",1,0.718,NA,NA,NA,NA,NA,14,"Stimuli/Words/word31.jpg","Stimuli/Words/word31.jpg","s","second",2,0,0.0559,0.0566,"2021-12-22_09h44.41.978","01_word_task_central","2020.2.4","Win32",60,1280,720,"",NA,0,31,31,31,1,NA,NA,NA,NA,NA
NA,NA,"Stimuli/Words/word30.jpg","Stimuli/Words/word29.jpg","d",0,"d",1,0.6007,NA,NA,NA,NA,NA,26,"Stimuli/Words/word55.jpg","Stimuli/Words/word55.jpg","s","second",2,0,0.0559,0.0566,"2021-12-22_09h44.41.978","01_word_task_central","2020.2.4","Win32",60,1280,720,"space",22.0017,NA,NA,NA,NA,NA,0,0,0,0,1
NA,NA,"Stimuli/Words/word56.jpg","Stimuli/Words/word56.jpg","s",0,"s",1,0.7183,NA,NA,NA,NA,NA,37,"Stimuli/Words/word14.jpg","Stimuli/Words/word14.jpg","s","third",2,0,0.0559,0.0566,"2021-12-22_09h44.41.978","01_word_task_central","2020.2.4","Win32",60,1280,720,"",NA,NA,NA,NA,NA,NA,0,1,1,1,1
NA,NA,"Stimuli/Words/word26.jpg","Stimuli/Words/word25.jpg","d",0,"d",1,0.5997,NA,NA,NA,NA,NA,12,"Stimuli/Words/word29.jpg","Stimuli/Words/word29.jpg","s","second",2,0,0.0559,0.0566,"2021-12-22_09h44.41.978","01_word_task_central","2020.2.4","Win32",60,1280,720,"",NA,NA,NA,NA,NA,NA,0,2,2,2,1
NA,NA,"Stimuli/Words/word17.jpg","Stimuli/Words/word18.jpg","d",0,"d",1,0.7199,NA,NA,NA,NA,NA,19,"Stimuli/Words/word36.jpg","Stimuli/Words/word36.jpg","s","second",2,0,0.0559,0.0566,"2021-12-22_09h44.41.978","01_word_task_central","2020.2.4","Win32",60,1280,720,"",NA,NA,NA,NA,NA,NA,0,3,3,3,1
NA,NA,"Stimuli/Words/word40.jpg","Stimuli/Words/word40.jpg","s",0,"s",1,0.7791,NA,NA,NA,NA,NA,23,"Stimuli/Words/word40.jpg","Stimuli/Words/word40.jpg","s","second",2,0,0.0559,0.0566,"2021-12-22_09h44.41.978","01_word_task_central","2020.2.4","Win32",60,1280,720,"",NA,NA,NA,NA,NA,NA,0,4,4,4,1
NA,NA,"Stimuli/Words/word34.jpg","Stimuli/Words/word33.jpg","d",0,"d",1,0.7356,NA,NA,NA,NA,NA,65,"Stimuli/Words/word24.jpg","Stimuli/Words/word23.jpg","d","second",2,0,0.0559,0.0566,"2021-12-22_09h44.41.978","01_word_task_central","2020.2.4","Win32",60,1280,720,"",NA,NA,NA,NA,NA,NA,0,5,5,5,1
NA,NA,"Stimuli/Words/word14.jpg","Stimuli/Words/word14.jpg","s",0,"s",1,0.6873,NA,NA,NA,NA,NA,56,"Stimuli/Words/word57.jpg","Stimuli/Words/word57.jpg","s","third",2,0,0.0559,0.0566,"2021-12-22_09h44.41.978","01_word_task_central","2020.2.4","Win32",60,1280,720,"",NA,NA,NA,NA,NA,NA,0,6,6,6,1
NA,NA,"Stimuli/Words/word10.jpg","Stimuli/Words/word09.jpg","d",0,"d",1,0.9844,NA,NA,NA,NA,NA,67,"Stimuli/Words/word26.jpg","Stimuli/Words/word25.jpg","d","second",2,0,0.0559,0.0566,"2021-12-22_09h44.41.978","01_word_task_central","2020.2.4","Win32",60,1280,720,"",NA,NA,NA,NA,NA,NA,0,7,7,7,1
NA,NA,"Stimuli/Words/word21.jpg","Stimuli/Words/word21.jpg","s",0,"s",1,0.6236,NA,NA,NA,NA,NA,16,"Stimuli/Words/word33.jpg","Stimuli/Words/word33.jpg","s","second",2,0,0.0559,0.0566,"2021-12-22_09h44.41.978","01_word_task_central","2020.2.4","Win32",60,1280,720,"",NA,NA,NA,NA,NA,NA,0,8,8,8,1
NA,NA,"Stimuli/Words/word39.jpg","Stimuli/Words/word40.jpg","d",0,"d",1,0.6191,NA,NA,NA,NA,NA,105,"Stimuli/Words/word44.jpg","Stimuli/Words/word43.jpg","d","third",2,0,0.0559,0.0566,"2021-12-22_09h44.41.978","01_word_task_central","2020.2.4","Win32",60,1280,720,"",NA,NA,NA,NA,NA,NA,0,9,9,9,1
NA,NA,"Stimuli/Words/word45.jpg","Stimuli/Words/word46.jpg","d",0,"d",1,0.9419,NA,NA,NA,NA,NA,80,"Stimuli/Words/word39.jpg","Stimuli/Words/word40.jpg","d","second",2,0,0.0559,0.0566,"2021-12-22_09h44.41.978","01_word_task_central","2020.2.4","Win32",60,1280,720,"",NA,NA,NA,NA,NA,NA,0,10,10,10,1
NA,NA,"Stimuli/Words/word24.jpg","Stimuli/Words/word23.jpg","d",0,"d",1,0.8002,NA,NA,NA,NA,NA,110,"Stimuli/Words/word49.jpg","Stimuli/Words/word50.jpg","d","third",2,0,0.0559,0.0566,"2021-12-22_09h44.41.978","01_word_task_central","2020.2.4","Win32",60,1280,720,"",NA,NA,NA,NA,NA,NA,0,11,11,11,1
NA,NA,"Stimuli/Words/word23.jpg","Stimuli/Words/word24.jpg","d",0,"d",1,0.7364,NA,NA,NA,NA,NA,106,"Stimuli/Words/word45.jpg","Stimuli/Words/word46.jpg","d","third",2,0,0.0559,0.0566,"2021-12-22_09h44.41.978","01_word_task_central","2020.2.4","Win32",60,1280,720,"",NA,NA,NA,NA,NA,NA,0,12,12,12,1
NA,NA,"Stimuli/Words/word34.jpg","Stimuli/Words/word34.jpg","s",0,"s",1,0.7405,NA,NA,NA,NA,NA,64,"Stimuli/Words/word23.jpg","Stimuli/Words/word24.jpg","d","second",2,0,0.0559,0.0566,"2021-12-22_09h44.41.978","01_word_task_central","2020.2.4","Win32",60,1280,720,"",NA,NA,NA,NA,NA,NA,0,13,13,13,1
NA,NA,"Stimuli/Words/word11.jpg","Stimuli/Words/word12.jpg","d",0,"d",1,0.6971,NA,NA,NA,NA,NA,98,"Stimuli/Words/word17.jpg","Stimuli/Words/word18.jpg","d","third",2,0,0.0559,0.0566,"2021-12-22_09h44.41.978","01_word_task_central","2020.2.4","Win32",60,1280,720,"",NA,NA,NA,NA,NA,NA,0,14,14,14,1
NA,NA,"Stimuli/Words/word14.jpg","Stimuli/Words/word13.jpg","d",0,"d",1,0.6507,NA,NA,NA,NA,NA,83,"Stimuli/Words/word54.jpg","Stimuli/Words/word53.jpg","d","second",2,0,0.0559,0.0566,"2021-12-22_09h44.41.978","01_word_task_central","2020.2.4","Win32",60,1280,720,"",NA,NA,NA,NA,NA,NA,0,15,15,15,1
NA,NA,"Stimuli/Words/word44.jpg","Stimuli/Words/word43.jpg","d",0,"d",1,1.0041,NA,NA,NA,NA,NA,75,"Stimuli/Words/word34.jpg","Stimuli/Words/word33.jpg","d","second",2,0,0.0559,0.0566,"2021-12-22_09h44.41.978","01_word_task_central","2020.2.4","Win32",60,1280,720,"",NA,NA,NA,NA,NA,NA,0,16,16,16,1
NA,NA,"Stimuli/Words/word15.jpg","Stimuli/Words/word16.jpg","d",0,"d",1,1.0044,NA,NA,NA,NA,NA,95,"Stimuli/Words/word14.jpg","Stimuli/Words/word13.jpg","d","third",2,0,0.0559,0.0566,"2021-12-22_09h44.41.978","01_word_task_central","2020.2.4","Win32",60,1280,720,"",NA,NA,NA,NA,NA,NA,0,17,17,17,1
NA,NA,"Stimuli/Words/word42.jpg","Stimuli/Words/word41.jpg","d",0,"d",1,0.643,NA,NA,NA,NA,NA,4,"Stimuli/Words/word21.jpg","Stimuli/Words/word21.jpg","s","second",2,0,0.0559,0.0566,"2021-12-22_09h44.41.978","01_word_task_central","2020.2.4","Win32",60,1280,720,"",NA,NA,NA,NA,NA,NA,0,18,18,18,1
NA,NA,"Stimuli/Words/word29.jpg","Stimuli/Words/word30.jpg","d",0,"d",1,0.569,NA,NA,NA,NA,NA,69,"Stimuli/Words/word28.jpg","Stimuli/Words/word27.jpg","d","second",2,0,0.0559,0.0566,"2021-12-22_09h44.41.978","01_word_task_central","2020.2.4","Win32",60,1280,720,"",NA,NA,NA,NA,NA,NA,0,19,19,19,1
NA,NA,"Stimuli/Words/word36.jpg","Stimuli/Words/word36.jpg","s",0,"s",1,0.6183,NA,NA,NA,NA,NA,71,"Stimuli/Words/word30.jpg","Stimuli/Words/word29.jpg","d","second",2,0,0.0559,0.0566,"2021-12-22_09h44.41.978","01_word_task_central","2020.2.4","Win32",60,1280,720,"",NA,NA,NA,NA,NA,NA,0,20,20,20,1
NA,NA,"Stimuli/Words/word55.jpg","Stimuli/Words/word55.jpg","s",0,"s",1,0.7828,NA,NA,NA,NA,NA,27,"Stimuli/Words/word56.jpg","Stimuli/Words/word56.jpg","s","second",2,0,0.0559,0.0566,"2021-12-22_09h44.41.978","01_word_task_central","2020.2.4","Win32",60,1280,720,"",NA,NA,NA,NA,NA,NA,0,21,21,21,1
NA,NA,"Stimuli/Words/word54.jpg","Stimuli/Words/word53.jpg","d",0,"d",1,0.716,NA,NA,NA,NA,NA,103,"Stimuli/Words/word42.jpg","Stimuli/Words/word41.jpg","d","third",2,0,0.0559,0.0566,"2021-12-22_09h44.41.978","01_word_task_central","2020.2.4","Win32",60,1280,720,"",NA,NA,NA,NA,NA,NA,0,22,22,22,1
NA,NA,"Stimuli/Words/word12.jpg","Stimuli/Words/word12.jpg","s",0,"s",1,0.9573,NA,NA,NA,NA,NA,46,"Stimuli/Words/word43.jpg","Stimuli/Words/word43.jpg","s","third",2,0,0.0559,0.0566,"2021-12-22_09h44.41.978","01_word_task_central","2020.2.4","Win32",60,1280,720,"",NA,NA,NA,NA,NA,NA,0,23,23,23,1
NA,NA,"Stimuli/Words/word29.jpg","Stimuli/Words/word29.jpg","s",0,"s",1,0.5676,NA,NA,NA,NA,NA,70,"Stimuli/Words/word29.jpg","Stimuli/Words/word30.jpg","d","second",2,0,0.0559,0.0566,"2021-12-22_09h44.41.978","01_word_task_central","2020.2.4","Win32",60,1280,720,"",NA,NA,NA,NA,NA,NA,0,24,24,24,1
NA,NA,"Stimuli/Words/word33.jpg","Stimuli/Words/word33.jpg","s",0,"s",1,0.6833,NA,NA,NA,NA,NA,35,"Stimuli/Words/word12.jpg","Stimuli/Words/word12.jpg","s","third",2,0,0.0559,0.0566,"2021-12-22_09h44.41.978","01_word_task_central","2020.2.4","Win32",60,1280,720,"",NA,NA,NA,NA,NA,NA,0,25,25,25,1
NA,NA,"Stimuli/Words/word43.jpg","Stimuli/Words/word43.jpg","s",0,"s",1,0.9115,NA,NA,NA,NA,NA,24,"Stimuli/Words/word53.jpg","Stimuli/Words/word53.jpg","s","second",2,0,0.0559,0.0566,"2021-12-22_09h44.41.978","01_word_task_central","2020.2.4","Win32",60,1280,720,"",NA,NA,NA,NA,NA,NA,0,26,26,26,1
NA,NA,"Stimuli/Words/word57.jpg","Stimuli/Words/word57.jpg","s",0,"s",1,0.7026,NA,NA,NA,NA,NA,92,"Stimuli/Words/word11.jpg","Stimuli/Words/word12.jpg","d","third",2,0,0.0559,0.0566,"2021-12-22_09h44.41.978","01_word_task_central","2020.2.4","Win32",60,1280,720,"",NA,NA,NA,NA,NA,NA,0,27,27,27,1
NA,NA,"Stimuli/Words/word53.jpg","Stimuli/Words/word53.jpg","s",0,"s",1,0.6388,NA,NA,NA,NA,NA,96,"Stimuli/Words/word15.jpg","Stimuli/Words/word16.jpg","d","third",2,0,0.0559,0.0566,"2021-12-22_09h44.41.978","01_word_task_central","2020.2.4","Win32",60,1280,720,"",NA,NA,NA,NA,NA,NA,0,28,28,28,1
NA,NA,"Stimuli/Words/word28.jpg","Stimuli/Words/word27.jpg","d",0,"d",1,0.6515,NA,NA,NA,NA,NA,91,"Stimuli/Words/word10.jpg","Stimuli/Words/word09.jpg","d","third",2,0,0.0559,0.0566,"2021-12-22_09h44.41.978","01_word_task_central","2020.2.4","Win32",60,1280,720,"",NA,NA,NA,NA,NA,NA,0,29,29,29,1
NA,NA,"Stimuli/Words/word05.jpg","Stimuli/Words/word06.jpg","d",0,"s",0,0.775,NA,NA,NA,NA,NA,17,"Stimuli/Words/word34.jpg","Stimuli/Words/word34.jpg","s","second",2,0,0.0559,0.0566,"2021-12-22_09h44.41.978","01_word_task_central","2020.2.4","Win32",60,1280,720,"",NA,NA,NA,NA,NA,NA,0,30,30,30,1
NA,NA,"Stimuli/Words/word49.jpg","Stimuli/Words/word50.jpg","d",0,"d",1,1.0556,NA,NA,NA,NA,NA,58,"Stimuli/Words/word05.jpg","Stimuli/Words/word06.jpg","d","second",2,0,0.0559,0.0566,"2021-12-22_09h44.41.978","01_word_task_central","2020.2.4","Win32",60,1280,720,"",NA,NA,NA,NA,NA,NA,0,31,31,31,1
NA,NA,"","","",NA,"",NA,NA,NA,NA,NA,NA,NA,NA,"","","","",2,0,0.0559,0.0566,"2021-12-22_09h44.41.978","01_word_task_central","2020.2.4","Win32",60,1280,720,"space",6.3188,NA,NA,NA,NA,NA,NA,NA,NA,NA,NA
