"X.Scale","Y.Scale","image1","image2","corr_acc","xPosition","FW_resp.keys","FW_resp.corr","FW_resp.rt","word_loop_set1.thisRepN","word_loop_set1.thisTrialN","word_loop_set1.thisN","word_loop_set1.thisIndex","word_loop_set1.ran","trialID","imFile","imFile2","corr","diff","position","screen","x_scale","y_scale","date","expName","psychopyVersion","OS","frameRate","xResolution","yResolution","key_resp_3.keys","key_resp_3.rt","word_loop_set2.thisRepN","word_loop_set2.thisTrialN","word_loop_set2.thisN","word_loop_set2.thisIndex","word_loop_set2.ran","word_loop_set3.thisRepN","word_loop_set3.thisTrialN","word_loop_set3.thisN","word_loop_set3.thisIndex","word_loop_set3.ran"
0.0556,0.0561,"Stimuli/Words/word13.jpg","Stimuli/Words/word13.jpg","s",0,"s",1,0.5632,0,0,0,0,1,73,"Stimuli/Words/word32.jpg","Stimuli/Words/word31.jpg","d","second",2,0,0.0556,0.0561,"2021-12-22_12h19.04.783","01_word_task_central","2020.2.4","MacIntel",60,1280,800,"",NA,NA,NA,NA,NA,NA,NA,NA,NA,NA,NA
NA,NA,"Stimuli/Words/word01.jpg","Stimuli/Words/word01.jpg","s",0,"s",1,0.5816,0,1,1,1,1,9,"Stimuli/Words/word26.jpg","Stimuli/Words/word26.jpg","s","second",2,0,0.0556,0.0561,"2021-12-22_12h19.04.783","01_word_task_central","2020.2.4","MacIntel",60,1280,800,"",NA,NA,NA,NA,NA,NA,NA,NA,NA,NA,NA
NA,NA,"Stimuli/Words/word47.jpg","Stimuli/Words/word47.jpg","s",0,"s",1,0.4656,0,2,2,2,1,72,"Stimuli/Words/word31.jpg","Stimuli/Words/word32.jpg","d","second",2,0,0.0556,0.0561,"2021-12-22_12h19.04.783","01_word_task_central","2020.2.4","MacIntel",60,1280,800,"",NA,NA,NA,NA,NA,NA,NA,NA,NA,NA,NA
NA,NA,"Stimuli/Words/word31.jpg","Stimuli/Words/word32.jpg","d",0,"d",1,0.6239,0,3,3,3,1,91,"Stimuli/Words/word10.jpg","Stimuli/Words/word09.jpg","d","third",2,0,0.0556,0.0561,"2021-12-22_12h19.04.783","01_word_task_central","2020.2.4","MacIntel",60,1280,800,"",NA,NA,NA,NA,NA,NA,NA,NA,NA,NA,NA
NA,NA,"Stimuli/Words/word46.jpg","Stimuli/Words/word45.jpg","d",0,"d",1,0.8953,0,4,4,4,1,75,"Stimuli/Words/word34.jpg","Stimuli/Words/word33.jpg","d","second",2,0,0.0556,0.0561,"2021-12-22_12h19.04.783","01_word_task_central","2020.2.4","MacIntel",60,1280,800,"",NA,NA,NA,NA,NA,NA,NA,NA,NA,NA,NA
NA,NA,"Stimuli/Words/word33.jpg","Stimuli/Words/word33.jpg","s",0,"s",1,0.8048,0,5,5,5,1,115,"Stimuli/Words/word58.jpg","Stimuli/Words/word57.jpg","d","third",2,0,0.0556,0.0561,"2021-12-22_12h19.04.783","01_word_task_central","2020.2.4","MacIntel",60,1280,800,"",NA,NA,NA,NA,NA,NA,NA,NA,NA,NA,NA
NA,NA,"Stimuli/Words/word49.jpg","Stimuli/Words/word50.jpg","d",0,"d",1,0.6945,0,6,6,6,1,15,"Stimuli/Words/word32.jpg","Stimuli/Words/word32.jpg","s","second",2,0,0.0556,0.0561,"2021-12-22_12h19.04.783","01_word_task_central","2020.2.4","MacIntel",60,1280,800,"",NA,NA,NA,NA,NA,NA,NA,NA,NA,NA,NA
NA,NA,"Stimuli/Words/word58.jpg","Stimuli/Words/word57.jpg","d",0,"d",1,0.6725,0,7,7,7,1,25,"Stimuli/Words/word54.jpg","Stimuli/Words/word54.jpg","s","second",2,0,0.0556,0.0561,"2021-12-22_12h19.04.783","01_word_task_central","2020.2.4","MacIntel",60,1280,800,"",NA,NA,NA,NA,NA,NA,NA,NA,NA,NA,NA
NA,NA,"Stimuli/Words/word03.jpg","Stimuli/Words/word04.jpg","d",0,"d",1,0.6252,0,8,8,8,1,34,"Stimuli/Words/word11.jpg","Stimuli/Words/word11.jpg","s","third",2,0,0.0556,0.0561,"2021-12-22_12h19.04.783","01_word_task_central","2020.2.4","MacIntel",60,1280,800,"",NA,NA,NA,NA,NA,NA,NA,NA,NA,NA,NA
NA,NA,"Stimuli/Words/word29.jpg","Stimuli/Words/word30.jpg","d",0,"d",1,0.6513,0,9,9,9,1,79,"Stimuli/Words/word38.jpg","Stimuli/Words/word37.jpg","d","second",2,0,0.0556,0.0561,"2021-12-22_12h19.04.783","01_word_task_central","2020.2.4","MacIntel",60,1280,800,"",NA,NA,NA,NA,NA,NA,NA,NA,NA,NA,NA
NA,NA,"Stimuli/Words/word19.jpg","Stimuli/Words/word20.jpg","d",0,"s",0,0.908,0,10,10,10,1,40,"Stimuli/Words/word17.jpg","Stimuli/Words/word17.jpg","s","third",2,0,0.0556,0.0561,"2021-12-22_12h19.04.783","01_word_task_central","2020.2.4","MacIntel",60,1280,800,"",NA,NA,NA,NA,NA,NA,NA,NA,NA,NA,NA
NA,NA,"Stimuli/Words/word24.jpg","Stimuli/Words/word23.jpg","d",0,"d",1,0.6643,0,11,11,11,1,17,"Stimuli/Words/word34.jpg","Stimuli/Words/word34.jpg","s","second",2,0,0.0556,0.0561,"2021-12-22_12h19.04.783","01_word_task_central","2020.2.4","MacIntel",60,1280,800,"",NA,NA,NA,NA,NA,NA,NA,NA,NA,NA,NA
NA,NA,"Stimuli/Words/word10.jpg","Stimuli/Words/word09.jpg","d",0,"d",1,0.6003,0,12,12,12,1,80,"Stimuli/Words/word39.jpg","Stimuli/Words/word40.jpg","d","second",2,0,0.0556,0.0561,"2021-12-22_12h19.04.783","01_word_task_central","2020.2.4","MacIntel",60,1280,800,"",NA,NA,NA,NA,NA,NA,NA,NA,NA,NA,NA
NA,NA,"Stimuli/Words/word16.jpg","Stimuli/Words/word16.jpg","s",0,"s",1,0.6195,0,13,13,13,1,69,"Stimuli/Words/word28.jpg","Stimuli/Words/word27.jpg","d","second",2,0,0.0556,0.0561,"2021-12-22_12h19.04.783","01_word_task_central","2020.2.4","MacIntel",60,1280,800,"",NA,NA,NA,NA,NA,NA,NA,NA,NA,NA,NA
NA,NA,"Stimuli/Words/word33.jpg","Stimuli/Words/word34.jpg","d",0,"d",1,0.5766,0,14,14,14,1,50,"Stimuli/Words/word47.jpg","Stimuli/Words/word47.jpg","s","third",2,0,0.0556,0.0561,"2021-12-22_12h19.04.783","01_word_task_central","2020.2.4","MacIntel",60,1280,800,"",NA,NA,NA,NA,NA,NA,NA,NA,NA,NA,NA
NA,NA,"Stimuli/Words/word32.jpg","Stimuli/Words/word32.jpg","s",0,"s",1,0.9638,0,15,15,15,1,88,"Stimuli/Words/word03.jpg","Stimuli/Words/word04.jpg","d","third",2,0,0.0556,0.0561,"2021-12-22_12h19.04.783","01_word_task_central","2020.2.4","MacIntel",60,1280,800,"",NA,NA,NA,NA,NA,NA,NA,NA,NA,NA,NA
NA,NA,"Stimuli/Words/word45.jpg","Stimuli/Words/word45.jpg","s",0,"s",1,1.0482,0,16,16,16,1,22,"Stimuli/Words/word39.jpg","Stimuli/Words/word39.jpg","s","second",2,0,0.0556,0.0561,"2021-12-22_12h19.04.783","01_word_task_central","2020.2.4","MacIntel",60,1280,800,"",NA,NA,NA,NA,NA,NA,NA,NA,NA,NA,NA
NA,NA,"Stimuli/Words/word02.jpg","Stimuli/Words/word01.jpg","d",0,"d",1,0.7723,0,17,17,17,1,16,"Stimuli/Words/word33.jpg","Stimuli/Words/word33.jpg","s","second",2,0,0.0556,0.0561,"2021-12-22_12h19.04.783","01_word_task_central","2020.2.4","MacIntel",60,1280,800,"",NA,NA,NA,NA,NA,NA,NA,NA,NA,NA,NA
NA,NA,"Stimuli/Words/word38.jpg","Stimuli/Words/word37.jpg","d",0,"d",1,0.6699,0,18,18,18,1,70,"Stimuli/Words/word29.jpg","Stimuli/Words/word30.jpg","d","second",2,0,0.0556,0.0561,"2021-12-22_12h19.04.783","01_word_task_central","2020.2.4","MacIntel",60,1280,800,"",NA,NA,NA,NA,NA,NA,NA,NA,NA,NA,NA
NA,NA,"Stimuli/Words/word34.jpg","Stimuli/Words/word34.jpg","s",0,"s",1,0.5776,0,19,19,19,1,39,"Stimuli/Words/word16.jpg","Stimuli/Words/word16.jpg","s","third",2,0,0.0556,0.0561,"2021-12-22_12h19.04.783","01_word_task_central","2020.2.4","MacIntel",60,1280,800,"",NA,NA,NA,NA,NA,NA,NA,NA,NA,NA,NA
NA,NA,"Stimuli/Words/word42.jpg","Stimuli/Words/word42.jpg","s",0,"s",1,0.5088,0,20,20,20,1,74,"Stimuli/Words/word33.jpg","Stimuli/Words/word34.jpg","d","second",2,0,0.0556,0.0561,"2021-12-22_12h19.04.783","01_word_task_central","2020.2.4","MacIntel",60,1280,800,"",NA,NA,NA,NA,NA,NA,NA,NA,NA,NA,NA
NA,NA,"Stimuli/Words/word17.jpg","Stimuli/Words/word17.jpg","s",0,"s",1,0.5088,0,21,21,21,1,28,"Stimuli/Words/word01.jpg","Stimuli/Words/word01.jpg","s","third",2,0,0.0556,0.0561,"2021-12-22_12h19.04.783","01_word_task_central","2020.2.4","MacIntel",60,1280,800,"",NA,NA,NA,NA,NA,NA,NA,NA,NA,NA,NA
NA,NA,"Stimuli/Words/word39.jpg","Stimuli/Words/word40.jpg","d",0,"d",1,0.513,0,22,22,22,1,41,"Stimuli/Words/word18.jpg","Stimuli/Words/word18.jpg","s","third",2,0,0.0556,0.0561,"2021-12-22_12h19.04.783","01_word_task_central","2020.2.4","MacIntel",60,1280,800,"",NA,NA,NA,NA,NA,NA,NA,NA,NA,NA,NA
NA,NA,"Stimuli/Words/word03.jpg","Stimuli/Words/word03.jpg","s",0,"s",1,0.5065,0,23,23,23,1,87,"Stimuli/Words/word02.jpg","Stimuli/Words/word01.jpg","d","third",2,0,0.0556,0.0561,"2021-12-22_12h19.04.783","01_word_task_central","2020.2.4","MacIntel",60,1280,800,"",NA,NA,NA,NA,NA,NA,NA,NA,NA,NA,NA
NA,NA,"Stimuli/Words/word26.jpg","Stimuli/Words/word26.jpg","s",0,"s",1,0.8692,0,24,24,24,1,107,"Stimuli/Words/word46.jpg","Stimuli/Words/word45.jpg","d","third",2,0,0.0556,0.0561,"2021-12-22_12h19.04.783","01_word_task_central","2020.2.4","MacIntel",60,1280,800,"",NA,NA,NA,NA,NA,NA,NA,NA,NA,NA,NA
NA,NA,"Stimuli/Words/word34.jpg","Stimuli/Words/word33.jpg","d",0,"d",1,0.3877,0,25,25,25,1,48,"Stimuli/Words/word45.jpg","Stimuli/Words/word45.jpg","s","third",2,0,0.0556,0.0561,"2021-12-22_12h19.04.783","01_word_task_central","2020.2.4","MacIntel",60,1280,800,"",NA,NA,NA,NA,NA,NA,NA,NA,NA,NA,NA
NA,NA,"Stimuli/Words/word54.jpg","Stimuli/Words/word54.jpg","s",0,"s",1,0.6078,0,26,26,26,1,100,"Stimuli/Words/word19.jpg","Stimuli/Words/word20.jpg","d","third",2,0,0.0556,0.0561,"2021-12-22_12h19.04.783","01_word_task_central","2020.2.4","MacIntel",60,1280,800,"",NA,NA,NA,NA,NA,NA,NA,NA,NA,NA,NA
NA,NA,"Stimuli/Words/word39.jpg","Stimuli/Words/word39.jpg","s",0,"s",1,0.3385,0,27,27,27,1,65,"Stimuli/Words/word24.jpg","Stimuli/Words/word23.jpg","d","second",2,0,0.0556,0.0561,"2021-12-22_12h19.04.783","01_word_task_central","2020.2.4","MacIntel",60,1280,800,"",NA,NA,NA,NA,NA,NA,NA,NA,NA,NA,NA
NA,NA,"Stimuli/Words/word32.jpg","Stimuli/Words/word31.jpg","d",0,"d",1,0.6985,0,28,28,28,1,110,"Stimuli/Words/word49.jpg","Stimuli/Words/word50.jpg","d","third",2,0,0.0556,0.0561,"2021-12-22_12h19.04.783","01_word_task_central","2020.2.4","MacIntel",60,1280,800,"",NA,NA,NA,NA,NA,NA,NA,NA,NA,NA,NA
NA,NA,"Stimuli/Words/word11.jpg","Stimuli/Words/word11.jpg","s",0,"s",1,0.6463,0,29,29,29,1,30,"Stimuli/Words/word03.jpg","Stimuli/Words/word03.jpg","s","third",2,0,0.0556,0.0561,"2021-12-22_12h19.04.783","01_word_task_central","2020.2.4","MacIntel",60,1280,800,"",NA,NA,NA,NA,NA,NA,NA,NA,NA,NA,NA
NA,NA,"Stimuli/Words/word18.jpg","Stimuli/Words/word18.jpg","s",0,"s",1,0.4956,0,30,30,30,1,36,"Stimuli/Words/word13.jpg","Stimuli/Words/word13.jpg","s","third",2,0,0.0556,0.0561,"2021-12-22_12h19.04.783","01_word_task_central","2020.2.4","MacIntel",60,1280,800,"",NA,NA,NA,NA,NA,NA,NA,NA,NA,NA,NA
NA,NA,"Stimuli/Words/word28.jpg","Stimuli/Words/word27.jpg","d",0,"d",1,0.5779,0,31,31,31,1,45,"Stimuli/Words/word42.jpg","Stimuli/Words/word42.jpg","s","third",2,0,0.0556,0.0561,"2021-12-22_12h19.04.783","01_word_task_central","2020.2.4","MacIntel",60,1280,800,"",NA,NA,NA,NA,NA,NA,NA,NA,NA,NA,NA
NA,NA,"Stimuli/Words/word18.jpg","Stimuli/Words/word17.jpg","d",0,"d",1,0.5811,NA,NA,NA,NA,NA,10,"Stimuli/Words/word27.jpg","Stimuli/Words/word27.jpg","s","second",2,0,0.0556,0.0561,"2021-12-22_12h19.04.783","01_word_task_central","2020.2.4","MacIntel",60,1280,800,"space",7.8093,0,0,0,0,1,NA,NA,NA,NA,NA
NA,NA,"Stimuli/Words/word56.jpg","Stimuli/Words/word55.jpg","d",0,"d",1,0.6133,NA,NA,NA,NA,NA,57,"Stimuli/Words/word58.jpg","Stimuli/Words/word58.jpg","s","third",2,0,0.0556,0.0561,"2021-12-22_12h19.04.783","01_word_task_central","2020.2.4","MacIntel",60,1280,800,"",NA,0,1,1,1,1,NA,NA,NA,NA,NA
NA,NA,"Stimuli/Words/word27.jpg","Stimuli/Words/word27.jpg","s",0,"s",1,0.5533,NA,NA,NA,NA,NA,26,"Stimuli/Words/word55.jpg","Stimuli/Words/word55.jpg","s","second",2,0,0.0556,0.0561,"2021-12-22_12h19.04.783","01_word_task_central","2020.2.4","MacIntel",60,1280,800,"",NA,0,2,2,2,1,NA,NA,NA,NA,NA
NA,NA,"Stimuli/Words/word12.jpg","Stimuli/Words/word12.jpg","s",0,"s",1,0.5535,NA,NA,NA,NA,NA,112,"Stimuli/Words/word51.jpg","Stimuli/Words/word52.jpg","d","third",2,0,0.0556,0.0561,"2021-12-22_12h19.04.783","01_word_task_central","2020.2.4","MacIntel",60,1280,800,"",NA,0,3,3,3,1,NA,NA,NA,NA,NA
NA,NA,"Stimuli/Words/word51.jpg","Stimuli/Words/word51.jpg","s",0,"s",1,0.5554,NA,NA,NA,NA,NA,38,"Stimuli/Words/word15.jpg","Stimuli/Words/word15.jpg","s","third",2,0,0.0556,0.0561,"2021-12-22_12h19.04.783","01_word_task_central","2020.2.4","MacIntel",60,1280,800,"",NA,0,4,4,4,1,NA,NA,NA,NA,NA
NA,NA,"Stimuli/Words/word01.jpg","Stimuli/Words/word02.jpg","d",0,"d",1,0.7117,NA,NA,NA,NA,NA,2,"Stimuli/Words/word07.jpg","Stimuli/Words/word07.jpg","s","second",2,0,0.0556,0.0561,"2021-12-22_12h19.04.783","01_word_task_central","2020.2.4","MacIntel",60,1280,800,"",NA,0,5,5,5,1,NA,NA,NA,NA,NA
NA,NA,"Stimuli/Words/word06.jpg","Stimuli/Words/word06.jpg","s",0,"s",1,0.7089,NA,NA,NA,NA,NA,98,"Stimuli/Words/word17.jpg","Stimuli/Words/word18.jpg","d","third",2,0,0.0556,0.0561,"2021-12-22_12h19.04.783","01_word_task_central","2020.2.4","MacIntel",60,1280,800,"",NA,0,6,6,6,1,NA,NA,NA,NA,NA
NA,NA,"Stimuli/Words/word58.jpg","Stimuli/Words/word58.jpg","s",0,"s",1,0.4821,NA,NA,NA,NA,NA,35,"Stimuli/Words/word12.jpg","Stimuli/Words/word12.jpg","s","third",2,0,0.0556,0.0561,"2021-12-22_12h19.04.783","01_word_task_central","2020.2.4","MacIntel",60,1280,800,"",NA,0,7,7,7,1,NA,NA,NA,NA,NA
NA,NA,"Stimuli/Words/word17.jpg","Stimuli/Words/word18.jpg","d",0,"d",1,0.5149,NA,NA,NA,NA,NA,64,"Stimuli/Words/word23.jpg","Stimuli/Words/word24.jpg","d","second",2,0,0.0556,0.0561,"2021-12-22_12h19.04.783","01_word_task_central","2020.2.4","MacIntel",60,1280,800,"",NA,0,8,8,8,1,NA,NA,NA,NA,NA
NA,NA,"Stimuli/Words/word07.jpg","Stimuli/Words/word07.jpg","s",0,"s",1,0.5806,NA,NA,NA,NA,NA,23,"Stimuli/Words/word40.jpg","Stimuli/Words/word40.jpg","s","second",2,0,0.0556,0.0561,"2021-12-22_12h19.04.783","01_word_task_central","2020.2.4","MacIntel",60,1280,800,"",NA,0,9,9,9,1,NA,NA,NA,NA,NA
NA,NA,"Stimuli/Words/word46.jpg","Stimuli/Words/word46.jpg","s",0,"s",1,0.4321,NA,NA,NA,NA,NA,1,"Stimuli/Words/word06.jpg","Stimuli/Words/word06.jpg","s","second",2,0,0.0556,0.0561,"2021-12-22_12h19.04.783","01_word_task_central","2020.2.4","MacIntel",60,1280,800,"",NA,0,10,10,10,1,NA,NA,NA,NA,NA
NA,NA,"Stimuli/Words/word28.jpg","Stimuli/Words/word28.jpg","s",0,"s",1,0.5398,NA,NA,NA,NA,NA,63,"Stimuli/Words/word22.jpg","Stimuli/Words/word21.jpg","d","second",2,0,0.0556,0.0561,"2021-12-22_12h19.04.783","01_word_task_central","2020.2.4","MacIntel",60,1280,800,"",NA,0,11,11,11,1,NA,NA,NA,NA,NA
NA,NA,"Stimuli/Words/word47.jpg","Stimuli/Words/word48.jpg","d",0,"d",1,0.4965,NA,NA,NA,NA,NA,49,"Stimuli/Words/word46.jpg","Stimuli/Words/word46.jpg","s","third",2,0,0.0556,0.0561,"2021-12-22_12h19.04.783","01_word_task_central","2020.2.4","MacIntel",60,1280,800,"",NA,0,12,12,12,1,NA,NA,NA,NA,NA
NA,NA,"Stimuli/Words/word30.jpg","Stimuli/Words/word29.jpg","d",0,"d",1,0.6012,NA,NA,NA,NA,NA,43,"Stimuli/Words/word20.jpg","Stimuli/Words/word20.jpg","s","third",2,0,0.0556,0.0561,"2021-12-22_12h19.04.783","01_word_task_central","2020.2.4","MacIntel",60,1280,800,"",NA,0,13,13,13,1,NA,NA,NA,NA,NA
NA,NA,"Stimuli/Words/word40.jpg","Stimuli/Words/word39.jpg","d",0,"d",1,0.6198,NA,NA,NA,NA,NA,85,"Stimuli/Words/word56.jpg","Stimuli/Words/word55.jpg","d","second",2,0,0.0556,0.0561,"2021-12-22_12h19.04.783","01_word_task_central","2020.2.4","MacIntel",60,1280,800,"",NA,0,14,14,14,1,NA,NA,NA,NA,NA
NA,NA,"Stimuli/Words/word55.jpg","Stimuli/Words/word55.jpg","s",0,"s",1,0.6173,NA,NA,NA,NA,NA,99,"Stimuli/Words/word18.jpg","Stimuli/Words/word17.jpg","d","third",2,0,0.0556,0.0561,"2021-12-22_12h19.04.783","01_word_task_central","2020.2.4","MacIntel",60,1280,800,"",NA,0,15,15,15,1,NA,NA,NA,NA,NA
NA,NA,"Stimuli/Words/word41.jpg","Stimuli/Words/word42.jpg","d",0,"d",1,0.5483,NA,NA,NA,NA,NA,108,"Stimuli/Words/word47.jpg","Stimuli/Words/word48.jpg","d","third",2,0,0.0556,0.0561,"2021-12-22_12h19.04.783","01_word_task_central","2020.2.4","MacIntel",60,1280,800,"",NA,0,16,16,16,1,NA,NA,NA,NA,NA
NA,NA,"Stimuli/Words/word52.jpg","Stimuli/Words/word52.jpg","s",0,"s",1,0.6591,NA,NA,NA,NA,NA,11,"Stimuli/Words/word28.jpg","Stimuli/Words/word28.jpg","s","second",2,0,0.0556,0.0561,"2021-12-22_12h19.04.783","01_word_task_central","2020.2.4","MacIntel",60,1280,800,"",NA,0,17,17,17,1,NA,NA,NA,NA,NA
NA,NA,"Stimuli/Words/word15.jpg","Stimuli/Words/word15.jpg","s",0,"s",1,0.8753,NA,NA,NA,NA,NA,12,"Stimuli/Words/word29.jpg","Stimuli/Words/word29.jpg","s","second",2,0,0.0556,0.0561,"2021-12-22_12h19.04.783","01_word_task_central","2020.2.4","MacIntel",60,1280,800,"",NA,0,18,18,18,1,NA,NA,NA,NA,NA
NA,NA,"Stimuli/Words/word20.jpg","Stimuli/Words/word20.jpg","s",0,"s",1,0.5261,NA,NA,NA,NA,NA,8,"Stimuli/Words/word25.jpg","Stimuli/Words/word25.jpg","s","second",2,0,0.0556,0.0561,"2021-12-22_12h19.04.783","01_word_task_central","2020.2.4","MacIntel",60,1280,800,"",NA,0,19,19,19,1,NA,NA,NA,NA,NA
NA,NA,"Stimuli/Words/word14.jpg","Stimuli/Words/word13.jpg","d",0,"d",1,0.6483,NA,NA,NA,NA,NA,60,"Stimuli/Words/word07.jpg","Stimuli/Words/word08.jpg","d","second",2,0,0.0556,0.0561,"2021-12-22_12h19.04.783","01_word_task_central","2020.2.4","MacIntel",60,1280,800,"",NA,0,20,20,20,1,NA,NA,NA,NA,NA
NA,NA,"Stimuli/Words/word25.jpg","Stimuli/Words/word25.jpg","s",0,"s",1,0.5886,NA,NA,NA,NA,NA,55,"Stimuli/Words/word52.jpg","Stimuli/Words/word52.jpg","s","third",2,0,0.0556,0.0561,"2021-12-22_12h19.04.783","01_word_task_central","2020.2.4","MacIntel",60,1280,800,"",NA,0,21,21,21,1,NA,NA,NA,NA,NA
NA,NA,"Stimuli/Words/word05.jpg","Stimuli/Words/word06.jpg","d",0,"d",1,0.5833,NA,NA,NA,NA,NA,105,"Stimuli/Words/word44.jpg","Stimuli/Words/word43.jpg","d","third",2,0,0.0556,0.0561,"2021-12-22_12h19.04.783","01_word_task_central","2020.2.4","MacIntel",60,1280,800,"",NA,0,22,22,22,1,NA,NA,NA,NA,NA
NA,NA,"Stimuli/Words/word51.jpg","Stimuli/Words/word52.jpg","d",0,"d",1,0.6389,NA,NA,NA,NA,NA,89,"Stimuli/Words/word04.jpg","Stimuli/Words/word03.jpg","d","third",2,0,0.0556,0.0561,"2021-12-22_12h19.04.783","01_word_task_central","2020.2.4","MacIntel",60,1280,800,"",NA,0,23,23,23,1,NA,NA,NA,NA,NA
NA,NA,"Stimuli/Words/word29.jpg","Stimuli/Words/word29.jpg","s",0,"s",1,0.5193,NA,NA,NA,NA,NA,58,"Stimuli/Words/word05.jpg","Stimuli/Words/word06.jpg","d","second",2,0,0.0556,0.0561,"2021-12-22_12h19.04.783","01_word_task_central","2020.2.4","MacIntel",60,1280,800,"",NA,0,24,24,24,1,NA,NA,NA,NA,NA
NA,NA,"Stimuli/Words/word40.jpg","Stimuli/Words/word40.jpg","s",0,"s",1,0.5451,NA,NA,NA,NA,NA,95,"Stimuli/Words/word14.jpg","Stimuli/Words/word13.jpg","d","third",2,0,0.0556,0.0561,"2021-12-22_12h19.04.783","01_word_task_central","2020.2.4","MacIntel",60,1280,800,"",NA,0,25,25,25,1,NA,NA,NA,NA,NA
NA,NA,"Stimuli/Words/word44.jpg","Stimuli/Words/word43.jpg","d",0,"d",1,0.4512,NA,NA,NA,NA,NA,54,"Stimuli/Words/word51.jpg","Stimuli/Words/word51.jpg","s","third",2,0,0.0556,0.0561,"2021-12-22_12h19.04.783","01_word_task_central","2020.2.4","MacIntel",60,1280,800,"",NA,0,26,26,26,1,NA,NA,NA,NA,NA
NA,NA,"Stimuli/Words/word23.jpg","Stimuli/Words/word24.jpg","d",0,"d",1,0.7061,NA,NA,NA,NA,NA,6,"Stimuli/Words/word23.jpg","Stimuli/Words/word23.jpg","s","second",2,0,0.0556,0.0561,"2021-12-22_12h19.04.783","01_word_task_central","2020.2.4","MacIntel",60,1280,800,"",NA,0,27,27,27,1,NA,NA,NA,NA,NA
NA,NA,"Stimuli/Words/word04.jpg","Stimuli/Words/word03.jpg","d",0,"d",1,0.4853,NA,NA,NA,NA,NA,102,"Stimuli/Words/word41.jpg","Stimuli/Words/word42.jpg","d","third",2,0,0.0556,0.0561,"2021-12-22_12h19.04.783","01_word_task_central","2020.2.4","MacIntel",60,1280,800,"",NA,0,28,28,28,1,NA,NA,NA,NA,NA
NA,NA,"Stimuli/Words/word22.jpg","Stimuli/Words/word21.jpg","d",0,"d",1,0.4267,NA,NA,NA,NA,NA,71,"Stimuli/Words/word30.jpg","Stimuli/Words/word29.jpg","d","second",2,0,0.0556,0.0561,"2021-12-22_12h19.04.783","01_word_task_central","2020.2.4","MacIntel",60,1280,800,"",NA,0,29,29,29,1,NA,NA,NA,NA,NA
NA,NA,"Stimuli/Words/word07.jpg","Stimuli/Words/word08.jpg","d",0,"d",1,0.4715,NA,NA,NA,NA,NA,86,"Stimuli/Words/word01.jpg","Stimuli/Words/word02.jpg","d","third",2,0,0.0556,0.0561,"2021-12-22_12h19.04.783","01_word_task_central","2020.2.4","MacIntel",60,1280,800,"",NA,0,30,30,30,1,NA,NA,NA,NA,NA
NA,NA,"Stimuli/Words/word23.jpg","Stimuli/Words/word23.jpg","s",0,"s",1,0.5226,NA,NA,NA,NA,NA,81,"Stimuli/Words/word40.jpg","Stimuli/Words/word39.jpg","d","second",2,0,0.0556,0.0561,"2021-12-22_12h19.04.783","01_word_task_central","2020.2.4","MacIntel",60,1280,800,"",NA,0,31,31,31,1,NA,NA,NA,NA,NA
NA,NA,"Stimuli/Words/word48.jpg","Stimuli/Words/word47.jpg","d",0,"s",0,0.7707,NA,NA,NA,NA,NA,46,"Stimuli/Words/word43.jpg","Stimuli/Words/word43.jpg","s","third",2,0,0.0556,0.0561,"2021-12-22_12h19.04.783","01_word_task_central","2020.2.4","MacIntel",60,1280,800,"space",8.3925,NA,NA,NA,NA,NA,0,0,0,0,1
NA,NA,"Stimuli/Words/word11.jpg","Stimuli/Words/word12.jpg","d",0,"d",1,0.4687,NA,NA,NA,NA,NA,106,"Stimuli/Words/word45.jpg","Stimuli/Words/word46.jpg","d","third",2,0,0.0556,0.0561,"2021-12-22_12h19.04.783","01_word_task_central","2020.2.4","MacIntel",60,1280,800,"",NA,NA,NA,NA,NA,NA,0,1,1,1,1
NA,NA,"Stimuli/Words/word36.jpg","Stimuli/Words/word35.jpg","d",0,"d",1,1.568,NA,NA,NA,NA,NA,53,"Stimuli/Words/word50.jpg","Stimuli/Words/word50.jpg","s","third",2,0,0.0556,0.0561,"2021-12-22_12h19.04.783","01_word_task_central","2020.2.4","MacIntel",60,1280,800,"",NA,NA,NA,NA,NA,NA,0,2,2,2,1
NA,NA,"Stimuli/Words/word21.jpg","Stimuli/Words/word21.jpg","s",0,"d",0,0.4774,NA,NA,NA,NA,NA,113,"Stimuli/Words/word52.jpg","Stimuli/Words/word51.jpg","d","third",2,0,0.0556,0.0561,"2021-12-22_12h19.04.783","01_word_task_central","2020.2.4","MacIntel",60,1280,800,"",NA,NA,NA,NA,NA,NA,0,3,3,3,1
NA,NA,"Stimuli/Words/word31.jpg","Stimuli/Words/word31.jpg","s",0,"s",1,0.6685,NA,NA,NA,NA,NA,67,"Stimuli/Words/word26.jpg","Stimuli/Words/word25.jpg","d","second",2,0,0.0556,0.0561,"2021-12-22_12h19.04.783","01_word_task_central","2020.2.4","MacIntel",60,1280,800,"",NA,NA,NA,NA,NA,NA,0,4,4,4,1
NA,NA,"Stimuli/Words/word41.jpg","Stimuli/Words/word41.jpg","s",0,"s",1,0.5405,NA,NA,NA,NA,NA,31,"Stimuli/Words/word04.jpg","Stimuli/Words/word04.jpg","s","third",2,0,0.0556,0.0561,"2021-12-22_12h19.04.783","01_word_task_central","2020.2.4","MacIntel",60,1280,800,"",NA,NA,NA,NA,NA,NA,0,5,5,5,1
NA,NA,"Stimuli/Words/word30.jpg","Stimuli/Words/word30.jpg","s",0,"s",1,0.5276,NA,NA,NA,NA,NA,52,"Stimuli/Words/word49.jpg","Stimuli/Words/word49.jpg","s","third",2,0,0.0556,0.0561,"2021-12-22_12h19.04.783","01_word_task_central","2020.2.4","MacIntel",60,1280,800,"",NA,NA,NA,NA,NA,NA,0,6,6,6,1
NA,NA,"Stimuli/Words/word12.jpg","Stimuli/Words/word11.jpg","d",0,"d",1,0.5974,NA,NA,NA,NA,NA,96,"Stimuli/Words/word15.jpg","Stimuli/Words/word16.jpg","d","third",2,0,0.0556,0.0561,"2021-12-22_12h19.04.783","01_word_task_central","2020.2.4","MacIntel",60,1280,800,"",NA,NA,NA,NA,NA,NA,0,7,7,7,1
NA,NA,"Stimuli/Words/word43.jpg","Stimuli/Words/word44.jpg","d",0,"d",1,0.7363,NA,NA,NA,NA,NA,27,"Stimuli/Words/word56.jpg","Stimuli/Words/word56.jpg","s","second",2,0,0.0556,0.0561,"2021-12-22_12h19.04.783","01_word_task_central","2020.2.4","MacIntel",60,1280,800,"",NA,NA,NA,NA,NA,NA,0,8,8,8,1
NA,NA,"Stimuli/Words/word37.jpg","Stimuli/Words/word37.jpg","s",0,"s",1,0.5845,NA,NA,NA,NA,NA,84,"Stimuli/Words/word55.jpg","Stimuli/Words/word56.jpg","d","second",2,0,0.0556,0.0561,"2021-12-22_12h19.04.783","01_word_task_central","2020.2.4","MacIntel",60,1280,800,"",NA,NA,NA,NA,NA,NA,0,9,9,9,1
NA,NA,"Stimuli/Words/word49.jpg","Stimuli/Words/word49.jpg","s",0,"s",1,0.9202,NA,NA,NA,NA,NA,61,"Stimuli/Words/word08.jpg","Stimuli/Words/word07.jpg","d","second",2,0,0.0556,0.0561,"2021-12-22_12h19.04.783","01_word_task_central","2020.2.4","MacIntel",60,1280,800,"",NA,NA,NA,NA,NA,NA,0,10,10,10,1
NA,NA,"Stimuli/Words/word21.jpg","Stimuli/Words/word22.jpg","d",0,"d",1,0.4378,NA,NA,NA,NA,NA,42,"Stimuli/Words/word19.jpg","Stimuli/Words/word19.jpg","s","third",2,0,0.0556,0.0561,"2021-12-22_12h19.04.783","01_word_task_central","2020.2.4","MacIntel",60,1280,800,"",NA,NA,NA,NA,NA,NA,0,11,11,11,1
NA,NA,"Stimuli/Words/word35.jpg","Stimuli/Words/word35.jpg","s",0,"d",0,0.5993,NA,NA,NA,NA,NA,37,"Stimuli/Words/word14.jpg","Stimuli/Words/word14.jpg","s","third",2,0,0.0556,0.0561,"2021-12-22_12h19.04.783","01_word_task_central","2020.2.4","MacIntel",60,1280,800,"",NA,NA,NA,NA,NA,NA,0,12,12,12,1
NA,NA,"Stimuli/Words/word08.jpg","Stimuli/Words/word07.jpg","d",0,"d",1,0.5445,NA,NA,NA,NA,NA,93,"Stimuli/Words/word12.jpg","Stimuli/Words/word11.jpg","d","third",2,0,0.0556,0.0561,"2021-12-22_12h19.04.783","01_word_task_central","2020.2.4","MacIntel",60,1280,800,"",NA,NA,NA,NA,NA,NA,0,13,13,13,1
NA,NA,"Stimuli/Words/word50.jpg","Stimuli/Words/word50.jpg","s",0,"s",1,0.5816,NA,NA,NA,NA,NA,109,"Stimuli/Words/word48.jpg","Stimuli/Words/word47.jpg","d","third",2,0,0.0556,0.0561,"2021-12-22_12h19.04.783","01_word_task_central","2020.2.4","MacIntel",60,1280,800,"",NA,NA,NA,NA,NA,NA,0,14,14,14,1
NA,NA,"Stimuli/Words/word04.jpg","Stimuli/Words/word04.jpg","s",0,"s",1,0.5157,NA,NA,NA,NA,NA,7,"Stimuli/Words/word24.jpg","Stimuli/Words/word24.jpg","s","second",2,0,0.0556,0.0561,"2021-12-22_12h19.04.783","01_word_task_central","2020.2.4","MacIntel",60,1280,800,"",NA,NA,NA,NA,NA,NA,0,15,15,15,1
NA,NA,"Stimuli/Words/word52.jpg","Stimuli/Words/word51.jpg","d",0,"d",1,0.5867,NA,NA,NA,NA,NA,92,"Stimuli/Words/word11.jpg","Stimuli/Words/word12.jpg","d","third",2,0,0.0556,0.0561,"2021-12-22_12h19.04.783","01_word_task_central","2020.2.4","MacIntel",60,1280,800,"",NA,NA,NA,NA,NA,NA,0,16,16,16,1
NA,NA,"Stimuli/Words/word35.jpg","Stimuli/Words/word36.jpg","d",0,"d",1,0.6313,NA,NA,NA,NA,NA,4,"Stimuli/Words/word21.jpg","Stimuli/Words/word21.jpg","s","second",2,0,0.0556,0.0561,"2021-12-22_12h19.04.783","01_word_task_central","2020.2.4","MacIntel",60,1280,800,"",NA,NA,NA,NA,NA,NA,0,17,17,17,1
NA,NA,"Stimuli/Words/word45.jpg","Stimuli/Words/word46.jpg","d",0,"d",1,0.5727,NA,NA,NA,NA,NA,44,"Stimuli/Words/word41.jpg","Stimuli/Words/word41.jpg","s","third",2,0,0.0556,0.0561,"2021-12-22_12h19.04.783","01_word_task_central","2020.2.4","MacIntel",60,1280,800,"",NA,NA,NA,NA,NA,NA,0,18,18,18,1
NA,NA,"Stimuli/Words/word36.jpg","Stimuli/Words/word36.jpg","s",0,"s",1,0.5668,NA,NA,NA,NA,NA,20,"Stimuli/Words/word37.jpg","Stimuli/Words/word37.jpg","s","second",2,0,0.0556,0.0561,"2021-12-22_12h19.04.783","01_word_task_central","2020.2.4","MacIntel",60,1280,800,"",NA,NA,NA,NA,NA,NA,0,19,19,19,1
NA,NA,"Stimuli/Words/word54.jpg","Stimuli/Words/word53.jpg","d",0,"d",1,0.5398,NA,NA,NA,NA,NA,104,"Stimuli/Words/word43.jpg","Stimuli/Words/word44.jpg","d","third",2,0,0.0556,0.0561,"2021-12-22_12h19.04.783","01_word_task_central","2020.2.4","MacIntel",60,1280,800,"",NA,NA,NA,NA,NA,NA,0,20,20,20,1
NA,NA,"Stimuli/Words/word56.jpg","Stimuli/Words/word56.jpg","s",0,"s",1,0.6967,NA,NA,NA,NA,NA,13,"Stimuli/Words/word30.jpg","Stimuli/Words/word30.jpg","s","second",2,0,0.0556,0.0561,"2021-12-22_12h19.04.783","01_word_task_central","2020.2.4","MacIntel",60,1280,800,"",NA,NA,NA,NA,NA,NA,0,21,21,21,1
NA,NA,"Stimuli/Words/word55.jpg","Stimuli/Words/word56.jpg","d",0,"d",1,0.7622,NA,NA,NA,NA,NA,21,"Stimuli/Words/word38.jpg","Stimuli/Words/word38.jpg","s","second",2,0,0.0556,0.0561,"2021-12-22_12h19.04.783","01_word_task_central","2020.2.4","MacIntel",60,1280,800,"",NA,NA,NA,NA,NA,NA,0,22,22,22,1
NA,NA,"Stimuli/Words/word19.jpg","Stimuli/Words/word19.jpg","s",0,"s",1,0.4733,NA,NA,NA,NA,NA,14,"Stimuli/Words/word31.jpg","Stimuli/Words/word31.jpg","s","second",2,0,0.0556,0.0561,"2021-12-22_12h19.04.783","01_word_task_central","2020.2.4","MacIntel",60,1280,800,"",NA,NA,NA,NA,NA,NA,0,23,23,23,1
NA,NA,"Stimuli/Words/word37.jpg","Stimuli/Words/word38.jpg","d",0,"d",1,0.5528,NA,NA,NA,NA,NA,94,"Stimuli/Words/word13.jpg","Stimuli/Words/word14.jpg","d","third",2,0,0.0556,0.0561,"2021-12-22_12h19.04.783","01_word_task_central","2020.2.4","MacIntel",60,1280,800,"",NA,NA,NA,NA,NA,NA,0,24,24,24,1
NA,NA,"Stimuli/Words/word43.jpg","Stimuli/Words/word43.jpg","s",0,"s",1,1.1144,NA,NA,NA,NA,NA,76,"Stimuli/Words/word35.jpg","Stimuli/Words/word36.jpg","d","second",2,0,0.0556,0.0561,"2021-12-22_12h19.04.783","01_word_task_central","2020.2.4","MacIntel",60,1280,800,"",NA,NA,NA,NA,NA,NA,0,25,25,25,1
NA,NA,"Stimuli/Words/word24.jpg","Stimuli/Words/word24.jpg","s",0,"s",1,0.4838,NA,NA,NA,NA,NA,83,"Stimuli/Words/word54.jpg","Stimuli/Words/word53.jpg","d","second",2,0,0.0556,0.0561,"2021-12-22_12h19.04.783","01_word_task_central","2020.2.4","MacIntel",60,1280,800,"",NA,NA,NA,NA,NA,NA,0,26,26,26,1
NA,NA,"Stimuli/Words/word26.jpg","Stimuli/Words/word25.jpg","d",0,"d",1,0.4522,NA,NA,NA,NA,NA,19,"Stimuli/Words/word36.jpg","Stimuli/Words/word36.jpg","s","second",2,0,0.0556,0.0561,"2021-12-22_12h19.04.783","01_word_task_central","2020.2.4","MacIntel",60,1280,800,"",NA,NA,NA,NA,NA,NA,0,27,27,27,1
NA,NA,"Stimuli/Words/word38.jpg","Stimuli/Words/word38.jpg","s",0,"s",1,0.5643,NA,NA,NA,NA,NA,78,"Stimuli/Words/word37.jpg","Stimuli/Words/word38.jpg","d","second",2,0,0.0556,0.0561,"2021-12-22_12h19.04.783","01_word_task_central","2020.2.4","MacIntel",60,1280,800,"",NA,NA,NA,NA,NA,NA,0,28,28,28,1
NA,NA,"Stimuli/Words/word14.jpg","Stimuli/Words/word14.jpg","s",0,"s",1,0.6177,NA,NA,NA,NA,NA,18,"Stimuli/Words/word35.jpg","Stimuli/Words/word35.jpg","s","second",2,0,0.0556,0.0561,"2021-12-22_12h19.04.783","01_word_task_central","2020.2.4","MacIntel",60,1280,800,"",NA,NA,NA,NA,NA,NA,0,29,29,29,1
NA,NA,"Stimuli/Words/word15.jpg","Stimuli/Words/word16.jpg","d",0,"d",1,0.6372,NA,NA,NA,NA,NA,77,"Stimuli/Words/word36.jpg","Stimuli/Words/word35.jpg","d","second",2,0,0.0556,0.0561,"2021-12-22_12h19.04.783","01_word_task_central","2020.2.4","MacIntel",60,1280,800,"",NA,NA,NA,NA,NA,NA,0,30,30,30,1
NA,NA,"Stimuli/Words/word13.jpg","Stimuli/Words/word14.jpg","d",0,"d",1,0.6167,NA,NA,NA,NA,NA,62,"Stimuli/Words/word21.jpg","Stimuli/Words/word22.jpg","d","second",2,0,0.0556,0.0561,"2021-12-22_12h19.04.783","01_word_task_central","2020.2.4","MacIntel",60,1280,800,"",NA,NA,NA,NA,NA,NA,0,31,31,31,1
NA,NA,"","","",NA,"",NA,NA,NA,NA,NA,NA,NA,NA,"","","","",2,0,0.0556,0.0561,"2021-12-22_12h19.04.783","01_word_task_central","2020.2.4","MacIntel",60,1280,800,"space",8.443,NA,NA,NA,NA,NA,NA,NA,NA,NA,NA
