Duration,resp.keys,resp.corr,resp.rt,pracTrials.thisRepN,pracTrials.thisTrialN,pracTrials.thisN,pracTrials.thisIndex,pracTrials.ran,objLabel,imFile,distractLabel,corr,participant,date,expName,psychopyVersion,OS,frameRate,Corr,objDistract,py_duration,trials.thisRepN,trials.thisTrialN,trials.thisN,trials.thisIndex,trials.ran,objNum,animType,condition
0.3,left,1,1.0313,0,0,0,3,1,motorcycle,Stim/Prac (4).jpg,skateboard,left,610063b7b50c4e9488e77eca,2023-06-22_17h46.22.081,KorNet_adult_complete,2020.2.0,MacIntel,60,,,,,,,,,,,
0.3,right,1,0.7645,0,1,1,1,1,castle,Stim/Prac (2).png,car,right,610063b7b50c4e9488e77eca,2023-06-22_17h46.22.081,KorNet_adult_complete,2020.2.0,MacIntel,60,,,,,,,,,,,
0.25,left,1,0.7316,0,2,2,0,1,shoe,Stim/Prac (1).jpg,phone,left,610063b7b50c4e9488e77eca,2023-06-22_17h46.22.081,KorNet_adult_complete,2020.2.0,MacIntel,60,,,,,,,,,,,
0.25,right,1,0.7304,0,3,3,2,1,balloon,Stim/Prac (3).jpg,computer,right,610063b7b50c4e9488e77eca,2023-06-22_17h46.22.081,KorNet_adult_complete,2020.2.0,MacIntel,60,,,,,,,,,,,
0.3,left,1,0.7963,,,,,,chair,Stim/Complete/OBJ (12).png,,,610063b7b50c4e9488e77eca,2023-06-22_17h46.22.081,KorNet_adult_complete,2020.2.0,MacIntel,60,left,guitar,0.2967,0,0,0,7,1,12,Inanimate,1
0.3,left,1,0.7304,,,,,,spoon,Stim/Complete/OBJ (41).png,,,610063b7b50c4e9488e77eca,2023-06-22_17h46.22.081,KorNet_adult_complete,2020.2.0,MacIntel,60,left,airplane,0.2956,0,1,1,24,1,41,Inanimate,1
0.25,right,1,0.6448,,,,,,guitar,Stim/Complete/OBJ (27).png,,,610063b7b50c4e9488e77eca,2023-06-22_17h46.22.081,KorNet_adult_complete,2020.2.0,MacIntel,60,right,toothbrush,0.2978,0,2,2,18,1,27,Inanimate,1
0.25,left,1,0.9123,,,,,,hand,Stim/Complete/OBJ (25).png,,,610063b7b50c4e9488e77eca,2023-06-22_17h46.22.081,KorNet_adult_complete,2020.2.0,MacIntel,60,left,butterfly,0.2498,0,3,3,17,1,25,Animate,1
0.25,right,1,0.5472,,,,,,foot,Stim/Complete/OBJ (21).png,,,610063b7b50c4e9488e77eca,2023-06-22_17h46.22.081,KorNet_adult_complete,2020.2.0,MacIntel,60,right,deer,0.2494,0,4,4,14,1,21,Animate,1
0.2,right,1,0.48,,,,,,elephant,Stim/Complete/OBJ (18).png,,,610063b7b50c4e9488e77eca,2023-06-22_17h46.22.081,KorNet_adult_complete,2020.2.0,MacIntel,60,right,cat,0.2507,0,5,5,11,1,18,Animate,1
0.2,right,1,0.6302,,,,,,umbrella,Stim/Complete/OBJ (47).png,,,610063b7b50c4e9488e77eca,2023-06-22_17h46.22.081,KorNet_adult_complete,2020.2.0,MacIntel,60,right,airplane,0.2005,0,6,6,29,1,47,Inanimate,1
0.2,right,1,0.715,,,,,,kite,Stim/Complete/OBJ (30).png,,,610063b7b50c4e9488e77eca,2023-06-22_17h46.22.081,KorNet_adult_complete,2020.2.0,MacIntel,60,right,key,0.2,0,7,7,20,1,30,Inanimate,1
0.15,left,1,0.8261,,,,,,truck,Stim/Complete/OBJ (45).png,,,610063b7b50c4e9488e77eca,2023-06-22_17h46.22.081,KorNet_adult_complete,2020.2.0,MacIntel,60,left,chair,0.2003,0,8,8,27,1,45,Inanimate,1
0.15,right,1,0.4587,,,,,,tree,Stim/Complete/OBJ (44).png,,,610063b7b50c4e9488e77eca,2023-06-22_17h46.22.081,KorNet_adult_complete,2020.2.0,MacIntel,60,right,key,0.1502,0,9,9,26,1,44,Inanimate,1
0.15,left,1,0.5628,,,,,,cat,Stim/Complete/OBJ (11).png,,,610063b7b50c4e9488e77eca,2023-06-22_17h46.22.081,KorNet_adult_complete,2020.2.0,MacIntel,60,left,hand,0.1508,0,10,10,6,1,11,Animate,1
0.1,left,1,0.6168,,,,,,frog,Stim/Complete/OBJ (23).png,,,610063b7b50c4e9488e77eca,2023-06-22_17h46.22.081,KorNet_adult_complete,2020.2.0,MacIntel,60,left,bear,0.1503,0,11,11,16,1,23,Animate,1
0.1,left,1,0.6655,,,,,,butterfly,Stim/Complete/OBJ (10).png,,,610063b7b50c4e9488e77eca,2023-06-22_17h46.22.081,KorNet_adult_complete,2020.2.0,MacIntel,60,left,ant,0.1005,0,12,12,5,1,10,Animate,1
0.1,right,1,0.5654,,,,,,fork,Stim/Complete/OBJ (22).png,,,610063b7b50c4e9488e77eca,2023-06-22_17h46.22.081,KorNet_adult_complete,2020.2.0,MacIntel,60,right,airplane,0.0986,0,13,13,15,1,22,Inanimate,1
0.1,left,1,0.6354,,,,,,flower,Stim/Complete/OBJ (20).png,,,610063b7b50c4e9488e77eca,2023-06-22_17h46.22.081,KorNet_adult_complete,2020.2.0,MacIntel,60,left,tree,0.0995,0,14,14,13,1,20,Inanimate,1
0.1,right,1,0.4343,,,,,,apple,Stim/Complete/OBJ (4).png,,,610063b7b50c4e9488e77eca,2023-06-22_17h46.22.081,KorNet_adult_complete,2020.2.0,MacIntel,60,right,fork,0.0997,0,15,15,1,1,4,Inanimate,1
0.1,right,1,0.4925,,,,,,key,Stim/Complete/OBJ (29).png,,,610063b7b50c4e9488e77eca,2023-06-22_17h46.22.081,KorNet_adult_complete,2020.2.0,MacIntel,60,right,leaf,0.0999,0,16,16,19,1,29,Inanimate,1
0.1,left,1,0.6809,,,,,,fish,Stim/Complete/OBJ (19).png,,,610063b7b50c4e9488e77eca,2023-06-22_17h46.22.081,KorNet_adult_complete,2020.2.0,MacIntel,60,left,duck,0.1005,0,17,17,12,1,19,Animate,1
0.1,left,1,0.6139,,,,,,dog,Stim/Complete/OBJ (16).png,,,610063b7b50c4e9488e77eca,2023-06-22_17h46.22.081,KorNet_adult_complete,2020.2.0,MacIntel,60,left,cow,0.1006,0,18,18,9,1,16,Animate,1
0.1,left,1,0.5997,,,,,,turtle,Stim/Complete/OBJ (46).png,,,610063b7b50c4e9488e77eca,2023-06-22_17h46.22.081,KorNet_adult_complete,2020.2.0,MacIntel,60,left,cow,0.0993,0,19,19,28,1,46,Animate,1
0.1,left,1,0.6635,,,,,,squirrel,Stim/Complete/OBJ (42).png,,,610063b7b50c4e9488e77eca,2023-06-22_17h46.22.081,KorNet_adult_complete,2020.2.0,MacIntel,60,left,elephant,0.1001,0,20,20,25,1,42,Animate,1
0.1,left,1,0.9305,,,,,,bicycle,Stim/Complete/OBJ (7).png,,,610063b7b50c4e9488e77eca,2023-06-22_17h46.22.081,KorNet_adult_complete,2020.2.0,MacIntel,60,left,scissors,0.0994,0,21,21,3,1,7,Inanimate,1
0.1,left,1,0.6116,,,,,,rabbit,Stim/Complete/OBJ (38).png,,,610063b7b50c4e9488e77eca,2023-06-22_17h46.22.081,KorNet_adult_complete,2020.2.0,MacIntel,60,left,frog,0.0987,0,22,22,23,1,38,Animate,1
0.1,left,1,0.6608,,,,,,airplane,Stim/Complete/OBJ (1).png,,,610063b7b50c4e9488e77eca,2023-06-22_17h46.22.081,KorNet_adult_complete,2020.2.0,MacIntel,60,left,chair,0.099,0,23,23,0,1,1,Inanimate,1
0.1,right,1,0.5135,,,,,,leaf,Stim/Complete/OBJ (32).png,,,610063b7b50c4e9488e77eca,2023-06-22_17h46.22.081,KorNet_adult_complete,2020.2.0,MacIntel,60,right,tree,0.1018,0,24,24,22,1,32,Inanimate,1
0.1,left,1,0.7616,,,,,,lamp,Stim/Complete/OBJ (31).png,,,610063b7b50c4e9488e77eca,2023-06-22_17h46.22.081,KorNet_adult_complete,2020.2.0,MacIntel,60,left,truck,0.1001,0,25,25,21,1,31,Inanimate,1
0.1,left,1,0.5958,,,,,,bird,Stim/Complete/OBJ (8).png,,,610063b7b50c4e9488e77eca,2023-06-22_17h46.22.081,KorNet_adult_complete,2020.2.0,MacIntel,60,left,cow,0.1002,0,26,26,4,1,8,Animate,1
0.1,right,0,0.6457,,,,,,bear,Stim/Complete/OBJ (6).png,,,610063b7b50c4e9488e77eca,2023-06-22_17h46.22.081,KorNet_adult_complete,2020.2.0,MacIntel,60,left,deer,0.1004,0,27,27,2,1,6,Animate,1
0.1,left,1,0.6651,,,,,,duck,Stim/Complete/OBJ (17).png,,,610063b7b50c4e9488e77eca,2023-06-22_17h46.22.081,KorNet_adult_complete,2020.2.0,MacIntel,60,left,penguin,0.1003,0,28,28,10,1,17,Animate,1
0.1,left,1,1.0631,,,,,,cow,Stim/Complete/OBJ (14).png,,,610063b7b50c4e9488e77eca,2023-06-22_17h46.22.081,KorNet_adult_complete,2020.2.0,MacIntel,60,left,kangaroo,0.0998,0,29,29,8,1,14,Animate,1
