Duration,resp.keys,resp.corr,resp.rt,pracTrials.thisRepN,pracTrials.thisTrialN,pracTrials.thisN,pracTrials.thisIndex,pracTrials.ran,objLabel,imFile,distractLabel,corr,participant,date,expName,psychopyVersion,OS,frameRate,Corr,objDistract,py_duration,trials.thisRepN,trials.thisTrialN,trials.thisN,trials.thisIndex,trials.ran,objNum,animType,condition
0.3,right,1,2.7126,0,0,0,2,1,balloon,Stim/Prac (3).jpg,computer,right,BI,2023-06-21_14h39.52.979,KorNet_kid_complete,2020.2.0,Win32,60,,,,,,,,,,,
0.3,left,1,1.7056,0,1,1,3,1,motorcycle,Stim/Prac (4).jpg,skateboard,left,BI,2023-06-21_14h39.52.979,KorNet_kid_complete,2020.2.0,Win32,60,,,,,,,,,,,
0.25,right,1,1.2362,0,2,2,1,1,castle,Stim/Prac (2).png,car,right,BI,2023-06-21_14h39.52.979,KorNet_kid_complete,2020.2.0,Win32,60,,,,,,,,,,,
0.25,left,1,1.3713,0,3,3,0,1,shoe,Stim/Prac (1).jpg,phone,left,BI,2023-06-21_14h39.52.979,KorNet_kid_complete,2020.2.0,Win32,60,,,,,,,,,,,
0.3,right,1,1.1363,,,,,,leaf,Stim/Complete/OBJ (32).png,,,BI,2023-06-21_14h39.52.979,KorNet_kid_complete,2020.2.0,Win32,60,right,chair,0.3,0,0,0,22,1,32,Inanimate,1
0.3,right,1,0.8364,,,,,,cat,Stim/Complete/OBJ (11).png,,,BI,2023-06-21_14h39.52.979,KorNet_kid_complete,2020.2.0,Win32,60,right,bird,0.3004,0,1,1,6,1,11,Animate,1
0.25,left,1,1.2111,,,,,,turtle,Stim/Complete/OBJ (46).png,,,BI,2023-06-21_14h39.52.979,KorNet_kid_complete,2020.2.0,Win32,60,left,foot,0.343,0,2,2,28,1,46,Animate,1
0.25,right,1,0.7921,,,,,,butterfly,Stim/Complete/OBJ (10).png,,,BI,2023-06-21_14h39.52.979,KorNet_kid_complete,2020.2.0,Win32,60,right,cow,0.2501,0,3,3,5,1,10,Animate,1
0.25,left,1,1.1961,,,,,,key,Stim/Complete/OBJ (29).png,,,BI,2023-06-21_14h39.52.979,KorNet_kid_complete,2020.2.0,Win32,60,left,flower,0.2502,0,4,4,19,1,29,Inanimate,1
0.2,left,1,1.229,,,,,,rabbit,Stim/Complete/OBJ (38).png,,,BI,2023-06-21_14h39.52.979,KorNet_kid_complete,2020.2.0,Win32,60,left,butterfly,0.25,0,5,5,23,1,38,Animate,1
0.2,left,1,0.9632,,,,,,foot,Stim/Complete/OBJ (21).png,,,BI,2023-06-21_14h39.52.979,KorNet_kid_complete,2020.2.0,Win32,60,left,frog,0.1999,0,6,6,14,1,21,Animate,1
0.2,left,1,0.9478,,,,,,frog,Stim/Complete/OBJ (23).png,,,BI,2023-06-21_14h39.52.979,KorNet_kid_complete,2020.2.0,Win32,60,left,bear,0.2001,0,7,7,16,1,23,Animate,1
0.15,right,1,0.7371,,,,,,bear,Stim/Complete/OBJ (6).png,,,BI,2023-06-21_14h39.52.979,KorNet_kid_complete,2020.2.0,Win32,60,right,deer,0.2,0,8,8,2,1,6,Animate,1
0.15,right,1,0.7559,,,,,,dog,Stim/Complete/OBJ (16).png,,,BI,2023-06-21_14h39.52.979,KorNet_kid_complete,2020.2.0,Win32,60,right,mouse,0.1497,0,9,9,9,1,16,Animate,1
0.15,left,1,1.0311,,,,,,chair,Stim/Complete/OBJ (12).png,,,BI,2023-06-21_14h39.52.979,KorNet_kid_complete,2020.2.0,Win32,60,left,flower,0.1545,0,10,10,7,1,12,Inanimate,1
0.15,right,0,0.9107,,,,,,tree,Stim/Complete/OBJ (44).png,,,BI,2023-06-21_14h39.52.979,KorNet_kid_complete,2020.2.0,Win32,60,left,leaf,0.1502,0,11,11,26,1,44,Inanimate,1
0.15,right,1,0.73,,,,,,apple,Stim/Complete/OBJ (4).png,,,BI,2023-06-21_14h39.52.979,KorNet_kid_complete,2020.2.0,Win32,60,right,chair,0.15,0,12,12,1,1,4,Inanimate,1
0.15,right,1,0.7752,,,,,,guitar,Stim/Complete/OBJ (27).png,,,BI,2023-06-21_14h39.52.979,KorNet_kid_complete,2020.2.0,Win32,60,right,scissors,0.1499,0,13,13,18,1,27,Inanimate,1
0.1,left,1,0.918,,,,,,flower,Stim/Complete/OBJ (20).png,,,BI,2023-06-21_14h39.52.979,KorNet_kid_complete,2020.2.0,Win32,60,left,guitar,0.1502,0,14,14,13,1,20,Inanimate,1
0.1,right,1,0.8068,,,,,,duck,Stim/Complete/OBJ (17).png,,,BI,2023-06-21_14h39.52.979,KorNet_kid_complete,2020.2.0,Win32,60,right,rabbit,0.1001,0,15,15,10,1,17,Animate,1
0.1,left,1,1.0966,,,,,,fork,Stim/Complete/OBJ (22).png,,,BI,2023-06-21_14h39.52.979,KorNet_kid_complete,2020.2.0,Win32,60,left,chair,0.1,0,16,16,15,1,22,Inanimate,1
0.1,left,1,0.9214,,,,,,lamp,Stim/Complete/OBJ (31).png,,,BI,2023-06-21_14h39.52.979,KorNet_kid_complete,2020.2.0,Win32,60,left,airplane,0.1002,0,17,17,21,1,31,Inanimate,1
0.1,left,1,2.0043,,,,,,spoon,Stim/Complete/OBJ (41).png,,,BI,2023-06-21_14h39.52.979,KorNet_kid_complete,2020.2.0,Win32,60,left,tree,0.1001,0,18,18,24,1,41,Inanimate,1
0.1,left,1,0.9261,,,,,,bird,Stim/Complete/OBJ (8).png,,,BI,2023-06-21_14h39.52.979,KorNet_kid_complete,2020.2.0,Win32,60,left,elephant,0.1001,0,19,19,4,1,8,Animate,1
0.1,left,1,1.1338,,,,,,airplane,Stim/Complete/OBJ (1).png,,,BI,2023-06-21_14h39.52.979,KorNet_kid_complete,2020.2.0,Win32,60,left,apple,0.1003,0,20,20,0,1,1,Inanimate,1
0.1,left,1,0.9674,,,,,,bicycle,Stim/Complete/OBJ (7).png,,,BI,2023-06-21_14h39.52.979,KorNet_kid_complete,2020.2.0,Win32,60,left,flower,0.1002,0,21,21,3,1,7,Inanimate,1
0.1,left,1,1.0232,,,,,,kite,Stim/Complete/OBJ (30).png,,,BI,2023-06-21_14h39.52.979,KorNet_kid_complete,2020.2.0,Win32,60,left,key,0.0999,0,22,22,20,1,30,Inanimate,1
0.1,right,0,1.5848,,,,,,squirrel,Stim/Complete/OBJ (42).png,,,BI,2023-06-21_14h39.52.979,KorNet_kid_complete,2020.2.0,Win32,60,left,duck,0.1001,0,23,23,25,1,42,Animate,1
0.1,left,1,2.1707,,,,,,truck,Stim/Complete/OBJ (45).png,,,BI,2023-06-21_14h39.52.979,KorNet_kid_complete,2020.2.0,Win32,60,left,apple,0.1434,0,24,24,27,1,45,Inanimate,1
0.1,left,1,1.0367,,,,,,umbrella,Stim/Complete/OBJ (47).png,,,BI,2023-06-21_14h39.52.979,KorNet_kid_complete,2020.2.0,Win32,60,left,flower,0.0966,0,25,25,29,1,47,Inanimate,1
0.1,right,1,1.4636,,,,,,cow,Stim/Complete/OBJ (14).png,,,BI,2023-06-21_14h39.52.979,KorNet_kid_complete,2020.2.0,Win32,60,right,dog,0.0999,0,26,26,8,1,14,Animate,1
0.1,left,1,1.6806,,,,,,fish,Stim/Complete/OBJ (19).png,,,BI,2023-06-21_14h39.52.979,KorNet_kid_complete,2020.2.0,Win32,60,left,elephant,0.0997,0,27,27,12,1,19,Animate,1
0.1,left,1,1.0444,,,,,,elephant,Stim/Complete/OBJ (18).png,,,BI,2023-06-21_14h39.52.979,KorNet_kid_complete,2020.2.0,Win32,60,left,butterfly,0.1,0,28,28,11,1,18,Animate,1
0.1,right,1,0.8271,,,,,,hand,Stim/Complete/OBJ (25).png,,,BI,2023-06-21_14h39.52.979,KorNet_kid_complete,2020.2.0,Win32,60,right,turtle,0.0999,0,29,29,17,1,25,Animate,1
