Duration,resp.keys,resp.corr,resp.rt,pracTrials.thisRepN,pracTrials.thisTrialN,pracTrials.thisN,pracTrials.thisIndex,pracTrials.ran,objLabel,imFile,distractLabel,corr,participant,date,expName,psychopyVersion,OS,frameRate,Corr,objDistract,py_duration,trials.thisRepN,trials.thisTrialN,trials.thisN,trials.thisIndex,trials.ran,objNum,animType,condition
0.3,left,1,18.9441,0,0,0,0,1,shoe,Stim/Prac (1).jpg,phone,left,FO,2023-04-25_15h55.19.686,KorNet_kid_deleted,2020.2.0,Win32,60,,,,,,,,,,,
0.3,right,1,5.7247,0,1,1,1,1,castle,Stim/Prac (2).png,car,right,FO,2023-04-25_15h55.19.686,KorNet_kid_deleted,2020.2.0,Win32,60,,,,,,,,,,,
0.25,right,1,4.1633,0,2,2,2,1,balloon,Stim/Prac (3).jpg,computer,right,FO,2023-04-25_15h55.19.686,KorNet_kid_deleted,2020.2.0,Win32,60,,,,,,,,,,,
0.25,left,1,2.5759,0,3,3,3,1,motorcycle,Stim/Prac (4).jpg,skateboard,left,FO,2023-04-25_15h55.19.686,KorNet_kid_deleted,2020.2.0,Win32,60,,,,,,,,,,,
0.3,left,1,4.8017,,,,,,key,Stim/OBJ (29)_IC.png,,,FO,2023-04-25_15h55.19.686,KorNet_kid_deleted,2020.2.0,Win32,60,left,scissors,0.3195,0,0,0,19,1,29,Inanimate,3
0.3,right,0,3.8789,,,,,,flower,Stim/OBJ (20)_IC.png,,,FO,2023-04-25_15h55.19.686,KorNet_kid_deleted,2020.2.0,Win32,60,left,spoon,0.3143,0,1,1,13,1,20,Inanimate,3
0.3,left,0,3.4418,,,,,,bird,Stim/OBJ (8)_IC.png,,,FO,2023-04-25_15h55.19.686,KorNet_kid_deleted,2020.2.0,Win32,60,right,bear,0.3157,0,2,2,4,1,8,Animate,3
0.3,left,1,3.0211,,,,,,apple,Stim/OBJ (4)_IC.png,,,FO,2023-04-25_15h55.19.686,KorNet_kid_deleted,2020.2.0,Win32,60,left,key,0.3034,0,3,3,1,1,4,Inanimate,3
0.3,right,1,1.468,,,,,,kite,Stim/OBJ (30)_IC.png,,,FO,2023-04-25_15h55.19.686,KorNet_kid_deleted,2020.2.0,Win32,60,right,scissors,0.3005,0,4,4,20,1,30,Inanimate,3
0.25,right,1,2.1816,,,,,,frog,Stim/OBJ (23)_IC.png,,,FO,2023-04-25_15h55.19.686,KorNet_kid_deleted,2020.2.0,Win32,60,right,rabbit,0.294,0,5,5,16,1,23,Animate,3
0.25,right,1,1.237,,,,,,tree,Stim/OBJ (44)_IC.png,,,FO,2023-04-25_15h55.19.686,KorNet_kid_deleted,2020.2.0,Win32,60,right,watch,0.2393,0,6,6,26,1,44,Inanimate,3
0.25,left,1,1.5166,,,,,,truck,Stim/OBJ (45)_IC.png,,,FO,2023-04-25_15h55.19.686,KorNet_kid_deleted,2020.2.0,Win32,60,left,watch,0.2537,0,7,7,27,1,45,Inanimate,3
0.2,right,1,1.1756,,,,,,hand,Stim/OBJ (25)_IC.png,,,FO,2023-04-25_15h55.19.686,KorNet_kid_deleted,2020.2.0,Win32,60,right,cat,0.2425,0,8,8,17,1,25,Animate,3
0.2,right,1,1.7133,,,,,,fish,Stim/OBJ (19)_IC.png,,,FO,2023-04-25_15h55.19.686,KorNet_kid_deleted,2020.2.0,Win32,60,right,kangaroo,0.2172,0,9,9,12,1,19,Animate,3
0.2,left,1,1.9981,,,,,,squirrel,Stim/OBJ (42)_IC.png,,,FO,2023-04-25_15h55.19.686,KorNet_kid_deleted,2020.2.0,Win32,60,left,dog,0.1876,0,10,10,25,1,42,Animate,3
0.15,left,1,1.3846,,,,,,dog,Stim/OBJ (16)_IC.png,,,FO,2023-04-25_15h55.19.686,KorNet_kid_deleted,2020.2.0,Win32,60,left,frog,0.2217,0,11,11,9,1,16,Animate,3
0.15,right,1,1.5831,,,,,,chair,Stim/OBJ (12)_IC.png,,,FO,2023-04-25_15h55.19.686,KorNet_kid_deleted,2020.2.0,Win32,60,right,guitar,0.1454,0,12,12,7,1,12,Inanimate,3
0.15,right,1,1.555,,,,,,cow,Stim/OBJ (14)_IC.png,,,FO,2023-04-25_15h55.19.686,KorNet_kid_deleted,2020.2.0,Win32,60,right,squirrel,0.1603,0,13,13,8,1,14,Animate,3
0.1,left,1,0.8291,,,,,,rabbit,Stim/OBJ (38)_IC.png,,,FO,2023-04-25_15h55.19.686,KorNet_kid_deleted,2020.2.0,Win32,60,left,butterfly,0.161,0,14,14,23,1,38,Animate,3
0.1,left,1,2.5897,,,,,,spoon,Stim/OBJ (41)_IC.png,,,FO,2023-04-25_15h55.19.686,KorNet_kid_deleted,2020.2.0,Win32,60,left,guitar,0.0971,0,15,15,24,1,41,Inanimate,3
0.1,right,1,2.0574,,,,,,bear,Stim/OBJ (6)_IC.png,,,FO,2023-04-25_15h55.19.686,KorNet_kid_deleted,2020.2.0,Win32,60,right,foot,0.106,0,16,16,2,1,6,Animate,3
0.1,left,1,1.688,,,,,,cat,Stim/OBJ (11)_IC.png,,,FO,2023-04-25_15h55.19.686,KorNet_kid_deleted,2020.2.0,Win32,60,left,frog,0.0928,0,17,17,6,1,11,Animate,3
0.1,right,1,1.0233,,,,,,umbrella,Stim/OBJ (47)_IC.png,,,FO,2023-04-25_15h55.19.686,KorNet_kid_deleted,2020.2.0,Win32,60,right,guitar,0.1095,0,18,18,29,1,47,Inanimate,3
0.1,left,1,0.8883,,,,,,duck,Stim/OBJ (17)_IC.png,,,FO,2023-04-25_15h55.19.686,KorNet_kid_deleted,2020.2.0,Win32,60,left,hand,0.089,0,19,19,10,1,17,Animate,3
0.1,right,1,1.3329,,,,,,fork,Stim/OBJ (22)_IC.png,,,FO,2023-04-25_15h55.19.686,KorNet_kid_deleted,2020.2.0,Win32,60,right,apple,0.098,0,20,20,15,1,22,Inanimate,3
0.1,left,1,1.092,,,,,,butterfly,Stim/OBJ (10)_IC.png,,,FO,2023-04-25_15h55.19.686,KorNet_kid_deleted,2020.2.0,Win32,60,left,ant,0.1169,0,21,21,5,1,10,Animate,3
0.1,right,0,1.4532,,,,,,foot,Stim/OBJ (21)_IC.png,,,FO,2023-04-25_15h55.19.686,KorNet_kid_deleted,2020.2.0,Win32,60,left,mouse,0.0953,0,22,22,14,1,21,Animate,3
0.1,right,1,1.8341,,,,,,turtle,Stim/OBJ (46)_IC.png,,,FO,2023-04-25_15h55.19.686,KorNet_kid_deleted,2020.2.0,Win32,60,right,hand,0.1075,0,23,23,28,1,46,Animate,3
0.1,left,1,2.2105,,,,,,guitar,Stim/OBJ (27)_IC.png,,,FO,2023-04-25_15h55.19.686,KorNet_kid_deleted,2020.2.0,Win32,60,left,fork,0.0991,0,24,24,18,1,27,Inanimate,3
0.1,left,1,1.4635,,,,,,elephant,Stim/OBJ (18)_IC.png,,,FO,2023-04-25_15h55.19.686,KorNet_kid_deleted,2020.2.0,Win32,60,left,foot,0.1,0,25,25,11,1,18,Animate,3
0.1,left,1,1.6772,,,,,,bicycle,Stim/OBJ (7)_IC.png,,,FO,2023-04-25_15h55.19.686,KorNet_kid_deleted,2020.2.0,Win32,60,left,guitar,0.102,0,26,26,3,1,7,Inanimate,3
0.1,right,0,2.1627,,,,,,leaf,Stim/OBJ (32)_IC.png,,,FO,2023-04-25_15h55.19.686,KorNet_kid_deleted,2020.2.0,Win32,60,left,airplane,0.1106,0,27,27,22,1,32,Inanimate,3
0.1,left,0,1.1613,,,,,,lamp,Stim/OBJ (31)_IC.png,,,FO,2023-04-25_15h55.19.686,KorNet_kid_deleted,2020.2.0,Win32,60,right,watch,0.0897,0,28,28,21,1,31,Inanimate,3
0.15,right,0,1.0838,,,,,,airplane,Stim/OBJ (1)_IC.png,,,FO,2023-04-25_15h55.19.686,KorNet_kid_deleted,2020.2.0,Win32,60,left,watch,0.0942,0,29,29,0,1,1,Inanimate,3
