Duration,resp.keys,resp.corr,resp.rt,pracTrials.thisRepN,pracTrials.thisTrialN,pracTrials.thisN,pracTrials.thisIndex,pracTrials.ran,objLabel,imFile,distractLabel,corr,participant,date,expName,psychopyVersion,OS,frameRate,Corr,objDistract,py_duration,trials.thisRepN,trials.thisTrialN,trials.thisN,trials.thisIndex,trials.ran,objNum,animType,condition
0.3,left,1,2.4215,0,0,0,3,1,motorcycle,Stim/Prac (4).jpg,skateboard,left,SI,2023-05-02_11h34.37.373,KorNet_kid_complete,2020.2.0,Win32,60,,,,,,,,,,,
0.3,left,1,1.0894,0,1,1,0,1,shoe,Stim/Prac (1).jpg,phone,left,SI,2023-05-02_11h34.37.373,KorNet_kid_complete,2020.2.0,Win32,60,,,,,,,,,,,
0.25,right,1,0.6203,0,2,2,2,1,balloon,Stim/Prac (3).jpg,computer,right,SI,2023-05-02_11h34.37.373,KorNet_kid_complete,2020.2.0,Win32,60,,,,,,,,,,,
0.25,right,1,0.7416,0,3,3,1,1,castle,Stim/Prac (2).png,car,right,SI,2023-05-02_11h34.37.373,KorNet_kid_complete,2020.2.0,Win32,60,,,,,,,,,,,
0.3,left,1,0.8518,,,,,,umbrella,Stim/Complete/OBJ (47).png,,,SI,2023-05-02_11h34.37.373,KorNet_kid_complete,2020.2.0,Win32,60,left,tree,0.2986,0,0,0,29,1,47,Inanimate,1
0.3,right,1,1.0916,,,,,,frog,Stim/Complete/OBJ (23).png,,,SI,2023-05-02_11h34.37.373,KorNet_kid_complete,2020.2.0,Win32,60,right,butterfly,0.3003,0,1,1,16,1,23,Animate,1
0.25,left,1,1.013,,,,,,fish,Stim/Complete/OBJ (19).png,,,SI,2023-05-02_11h34.37.373,KorNet_kid_complete,2020.2.0,Win32,60,left,kangaroo,0.3041,0,2,2,12,1,19,Animate,1
0.25,left,1,1.0217,,,,,,bicycle,Stim/Complete/OBJ (7).png,,,SI,2023-05-02_11h34.37.373,KorNet_kid_complete,2020.2.0,Win32,60,left,airplane,0.2401,0,3,3,3,1,7,Inanimate,1
0.25,right,1,0.6461,,,,,,key,Stim/Complete/OBJ (29).png,,,SI,2023-05-02_11h34.37.373,KorNet_kid_complete,2020.2.0,Win32,60,right,chair,0.2612,0,4,4,19,1,29,Inanimate,1
0.2,left,1,1.0098,,,,,,turtle,Stim/Complete/OBJ (46).png,,,SI,2023-05-02_11h34.37.373,KorNet_kid_complete,2020.2.0,Win32,60,left,bird,0.2497,0,5,5,28,1,46,Animate,1
0.2,left,1,1.0079,,,,,,kite,Stim/Complete/OBJ (30).png,,,SI,2023-05-02_11h34.37.373,KorNet_kid_complete,2020.2.0,Win32,60,left,glasses,0.2024,0,6,6,20,1,30,Inanimate,1
0.2,left,1,1.005,,,,,,duck,Stim/Complete/OBJ (17).png,,,SI,2023-05-02_11h34.37.373,KorNet_kid_complete,2020.2.0,Win32,60,left,dog,0.1982,0,7,7,10,1,17,Animate,1
0.15,left,1,0.9903,,,,,,butterfly,Stim/Complete/OBJ (10).png,,,SI,2023-05-02_11h34.37.373,KorNet_kid_complete,2020.2.0,Win32,60,left,rabbit,0.209,0,8,8,5,1,10,Animate,1
0.15,right,1,0.7778,,,,,,bird,Stim/Complete/OBJ (8).png,,,SI,2023-05-02_11h34.37.373,KorNet_kid_complete,2020.2.0,Win32,60,right,elephant,0.1682,0,9,9,4,1,8,Animate,1
0.15,left,1,2.0568,,,,,,truck,Stim/Complete/OBJ (45).png,,,SI,2023-05-02_11h34.37.373,KorNet_kid_complete,2020.2.0,Win32,60,left,fork,0.1382,0,10,10,27,1,45,Inanimate,1
0.1,left,1,1.0183,,,,,,cat,Stim/Complete/OBJ (11).png,,,SI,2023-05-02_11h34.37.373,KorNet_kid_complete,2020.2.0,Win32,60,left,bear,0.1492,0,11,11,6,1,11,Animate,1
0.1,right,0,1.2878,,,,,,chair,Stim/Complete/OBJ (12).png,,,SI,2023-05-02_11h34.37.373,KorNet_kid_complete,2020.2.0,Win32,60,left,flower,0.1032,0,12,12,7,1,12,Inanimate,1
0.1,right,1,1.3081,,,,,,flower,Stim/Complete/OBJ (20).png,,,SI,2023-05-02_11h34.37.373,KorNet_kid_complete,2020.2.0,Win32,60,right,key,0.0904,0,13,13,13,1,20,Inanimate,1
0.1,right,1,0.8761,,,,,,dog,Stim/Complete/OBJ (16).png,,,SI,2023-05-02_11h34.37.373,KorNet_kid_complete,2020.2.0,Win32,60,right,kangaroo,0.0971,0,14,14,9,1,16,Animate,1
0.1,right,1,1.1333,,,,,,leaf,Stim/Complete/OBJ (32).png,,,SI,2023-05-02_11h34.37.373,KorNet_kid_complete,2020.2.0,Win32,60,right,key,0.1073,0,15,15,22,1,32,Inanimate,1
0.1,left,0,1.4635,,,,,,airplane,Stim/Complete/OBJ (1).png,,,SI,2023-05-02_11h34.37.373,KorNet_kid_complete,2020.2.0,Win32,60,right,guitar,0.0908,0,16,16,0,1,1,Inanimate,1
0.1,left,1,1.6129,,,,,,elephant,Stim/Complete/OBJ (18).png,,,SI,2023-05-02_11h34.37.373,KorNet_kid_complete,2020.2.0,Win32,60,left,frog,0.0908,0,17,17,11,1,18,Animate,1
0.1,right,1,1.4141,,,,,,lamp,Stim/Complete/OBJ (31).png,,,SI,2023-05-02_11h34.37.373,KorNet_kid_complete,2020.2.0,Win32,60,right,apple,0.0986,0,18,18,21,1,31,Inanimate,1
0.1,right,1,1.4055,,,,,,cow,Stim/Complete/OBJ (14).png,,,SI,2023-05-02_11h34.37.373,KorNet_kid_complete,2020.2.0,Win32,60,right,deer,0.1072,0,19,19,8,1,14,Animate,1
0.1,right,1,1.2887,,,,,,squirrel,Stim/Complete/OBJ (42).png,,,SI,2023-05-02_11h34.37.373,KorNet_kid_complete,2020.2.0,Win32,60,right,ant,0.099,0,20,20,25,1,42,Animate,1
0.1,right,1,1.3843,,,,,,spoon,Stim/Complete/OBJ (41).png,,,SI,2023-05-02_11h34.37.373,KorNet_kid_complete,2020.2.0,Win32,60,right,glasses,0.0907,0,21,21,24,1,41,Inanimate,1
0.1,right,1,1.2805,,,,,,bear,Stim/Complete/OBJ (6).png,,,SI,2023-05-02_11h34.37.373,KorNet_kid_complete,2020.2.0,Win32,60,right,hand,0.0974,0,22,22,2,1,6,Animate,1
0.1,right,1,1.0584,,,,,,rabbit,Stim/Complete/OBJ (38).png,,,SI,2023-05-02_11h34.37.373,KorNet_kid_complete,2020.2.0,Win32,60,right,bird,0.1047,0,23,23,23,1,38,Animate,1
0.1,left,0,1.206,,,,,,foot,Stim/Complete/OBJ (21).png,,,SI,2023-05-02_11h34.37.373,KorNet_kid_complete,2020.2.0,Win32,60,right,turtle,0.0939,0,24,24,14,1,21,Animate,1
0.1,right,1,0.6683,,,,,,apple,Stim/Complete/OBJ (4).png,,,SI,2023-05-02_11h34.37.373,KorNet_kid_complete,2020.2.0,Win32,60,right,watch,0.1077,0,25,25,1,1,4,Inanimate,1
0.1,left,1,1.1769,,,,,,hand,Stim/Complete/OBJ (25).png,,,SI,2023-05-02_11h34.37.373,KorNet_kid_complete,2020.2.0,Win32,60,left,foot,0.1028,0,26,26,17,1,25,Animate,1
0.1,right,1,0.8959,,,,,,fork,Stim/Complete/OBJ (22).png,,,SI,2023-05-02_11h34.37.373,KorNet_kid_complete,2020.2.0,Win32,60,right,key,0.0922,0,27,27,15,1,22,Inanimate,1
0.1,left,1,1.1058,,,,,,guitar,Stim/Complete/OBJ (27).png,,,SI,2023-05-02_11h34.37.373,KorNet_kid_complete,2020.2.0,Win32,60,left,bicycle,0.1043,0,28,28,18,1,27,Inanimate,1
0.1,right,1,1.4048,,,,,,tree,Stim/Complete/OBJ (44).png,,,SI,2023-05-02_11h34.37.373,KorNet_kid_complete,2020.2.0,Win32,60,right,apple,0.0994,0,29,29,26,1,44,Inanimate,1
